
time,gFx,gFy,gFz,ax,ay,az,wx,wy,wz,Bx,By,Bz,Azimuth,Pitch,Roll,Latitude,Longitude,Speed (m/s),
0.109555,-0.0585,0.4185,0.9025,0.0000,0.0000,0.0000,0.0000,0.0000,0.0000,0.0000,0.0000,0.0000,0.0000,0.0000,0.0000,0.00000000,0.00000000,0.00000000,
0.143411,-0.0585,0.4185,0.9025,0.0000,0.0000,0.0000,0.0000,0.0000,0.0000,56.0258,2.3025,2.8396,0.0000,0.0000,0.0000,0.00000000,0.00000000,0.00000000,
0.179270,-0.0503,0.4172,0.9359,0.0000,0.0000,0.0000,0.0000,0.0000,0.0000,56.0258,2.3025,2.8396,0.0000,0.0000,0.0000,0.00000000,0.00000000,0.00000000,
0.218186,-0.0503,0.4172,0.9359,0.0503,-0.0289,0.2012,0.0000,0.0000,0.0000,56.0258,2.3025,2.8396,0.0000,0.0000,0.0000,0.00000000,0.00000000,0.00000000,
0.225041,-0.0503,0.4172,0.9359,0.0503,-0.0289,0.2012,0.0000,0.0000,0.0000,56.3012,3.3855,2.8488,0.0000,0.0000,0.0000,0.00000000,0.00000000,0.00000000,
0.237601,-0.0601,0.4297,0.8970,0.0503,-0.0289,0.2012,0.0000,0.0000,0.0000,56.3012,3.3855,2.8488,0.0000,0.0000,0.0000,0.00000000,0.00000000,0.00000000,
0.242217,-0.0601,0.4297,0.8970,0.0503,-0.0289,0.2012,0.0418,0.0010,-0.0209,56.3012,3.3855,2.8488,0.0000,0.0000,0.0000,0.00000000,0.00000000,0.00000000,
0.276859,-0.0601,0.4297,0.8970,-0.0545,0.0582,-0.1108,0.0418,0.0010,-0.0209,56.3012,3.3855,2.8488,0.0000,0.0000,0.0000,0.00000000,0.00000000,0.00000000,
0.282166,-0.0601,0.4297,0.8970,-0.0545,0.0582,-0.1108,0.0418,0.0010,-0.0209,56.7153,3.1584,2.8029,0.0000,0.0000,0.0000,0.00000000,0.00000000,0.00000000,
0.308765,-0.0512,0.4195,0.9056,-0.0545,0.0582,-0.1108,0.0418,0.0010,-0.0209,56.7153,3.1584,2.8029,0.0000,0.0000,0.0000,0.00000000,0.00000000,0.00000000,
0.318359,-0.0512,0.4195,0.9056,-0.0545,0.0582,-0.1108,0.0130,0.0257,-0.0230,56.7153,3.1584,2.8029,0.0000,0.0000,0.0000,0.00000000,0.00000000,0.00000000,
0.337727,-0.0512,0.4195,0.9056,0.0456,-0.0092,0.0107,0.0130,0.0257,-0.0230,56.7153,3.1584,2.8029,0.0000,0.0000,0.0000,0.00000000,0.00000000,0.00000000,
0.342025,-0.0512,0.4195,0.9056,0.0473,-0.0141,0.0122,0.0130,0.0257,-0.0230,56.7153,3.1584,2.8029,0.0000,0.0000,0.0000,0.00000000,0.00000000,0.00000000,
0.344654,-0.0512,0.4195,0.9056,0.0473,-0.0141,0.0122,0.0130,0.0257,-0.0230,56.4333,3.2725,3.0455,0.0000,0.0000,0.0000,0.00000000,0.00000000,0.00000000,
0.360343,-0.0512,0.4195,0.9056,0.0473,-0.0141,0.0122,-0.0087,0.0188,-0.0394,56.4333,3.2725,3.0455,0.0000,0.0000,0.0000,0.00000000,0.00000000,0.00000000,
0.377389,-0.0490,0.4124,0.9417,0.0473,-0.0141,0.0122,-0.0087,0.0188,-0.0394,56.4333,3.2725,3.0455,0.0000,0.0000,0.0000,0.00000000,0.00000000,0.00000000,
0.398525,-0.0490,0.4124,0.9417,0.0993,-0.0526,0.0523,-0.0087,0.0188,-0.0394,56.4333,3.2725,3.0455,0.0000,0.0000,0.0000,0.00000000,0.00000000,0.00000000,
0.422972,-0.0490,0.4124,0.9417,0.0993,-0.0526,0.0523,-0.0087,0.0188,-0.0394,56.4737,3.1313,3.2423,0.0000,0.0000,0.0000,0.00000000,0.00000000,0.00000000,
0.431419,-0.0490,0.4124,0.9417,0.0993,-0.0526,0.0523,-0.0087,0.0188,-0.0394,56.4737,3.1313,3.2423,189.4688,-24.5000,-3.2344,0.00000000,0.00000000,0.00000000,
0.438247,-0.0490,0.4124,0.9417,0.0993,-0.0526,0.0523,0.0530,-0.0037,-0.0602,56.4737,3.1313,3.2423,189.4688,-24.5000,-3.2344,0.00000000,0.00000000,0.00000000,
0.442259,-0.0631,0.4157,0.9185,0.0993,-0.0526,0.0523,0.0530,-0.0037,-0.0602,56.4737,3.1313,3.2423,189.4688,-24.5000,-3.2344,0.00000000,0.00000000,0.00000000,
0.459543,-0.0631,0.4157,0.9185,-0.0202,-0.0768,0.0236,0.0530,-0.0037,-0.0602,56.4737,3.1313,3.2423,189.4688,-24.5000,-3.2344,0.00000000,0.00000000,0.00000000,
0.462837,-0.0631,0.4157,0.9185,-0.0183,-0.0743,0.0243,0.0530,-0.0037,-0.0602,56.4737,3.1313,3.2423,189.4688,-24.5000,-3.2344,0.00000000,0.00000000,0.00000000,
0.472388,-0.0631,0.4157,0.9185,-0.0183,-0.0743,0.0243,0.0530,-0.0037,-0.0602,56.4737,3.1313,3.2423,188.9844,-23.7344,-2.2812,0.00000000,0.00000000,0.00000000,
0.482046,-0.0631,0.4157,0.9185,-0.0183,-0.0743,0.0243,0.0530,-0.0037,-0.0602,57.0113,2.9104,3.2375,188.9844,-23.7344,-2.2812,0.00000000,0.00000000,0.00000000,
0.509227,-0.0985,0.4173,0.9138,-0.0183,-0.0743,0.0243,0.0530,-0.0037,-0.0602,57.0113,2.9104,3.2375,188.9844,-23.7344,-2.2812,0.00000000,0.00000000,0.00000000,
0.513523,-0.0985,0.4173,0.9138,-0.0183,-0.0743,0.0243,0.0530,-0.0037,-0.0602,57.0113,2.9104,3.2375,189.0781,-24.7656,-3.2031,0.00000000,0.00000000,0.00000000,
0.517756,-0.0985,0.4173,0.9138,-0.0183,-0.0743,0.0243,0.0877,0.0422,-0.0386,57.0113,2.9104,3.2375,189.0781,-24.7656,-3.2031,0.00000000,0.00000000,0.00000000,
0.520131,-0.0985,0.4173,0.9138,-0.0621,-0.0767,0.1497,0.0877,0.0422,-0.0386,57.0113,2.9104,3.2375,189.0781,-24.7656,-3.2031,0.00000000,0.00000000,0.00000000,
0.542052,-0.0985,0.4173,0.9138,-0.0621,-0.0767,0.1497,0.0877,0.0422,-0.0386,57.4301,2.2829,3.8571,189.0781,-24.7656,-3.2031,0.00000000,0.00000000,0.00000000,
0.556369,-0.0985,0.4173,0.9138,-0.0621,-0.0767,0.1497,0.0877,0.0422,-0.0386,57.4301,2.2829,3.8571,189.6562,-25.7969,-3.6719,0.00000000,0.00000000,0.00000000,
0.561340,-0.0985,0.4173,0.9138,-0.0621,-0.0767,0.1497,0.2841,0.4321,0.1110,57.4301,2.2829,3.8571,189.6562,-25.7969,-3.6719,0.00000000,0.00000000,0.00000000,
0.571864,-0.1140,0.4188,0.8509,-0.0621,-0.0767,0.1497,0.2841,0.4321,0.1110,57.4301,2.2829,3.8571,189.6562,-25.7969,-3.6719,0.00000000,0.00000000,0.00000000,
0.580540,-0.1140,0.4188,0.8509,-0.4130,-0.1399,0.1144,0.2841,0.4321,0.1110,57.4301,2.2829,3.8571,189.6562,-25.7969,-3.6719,0.00000000,0.00000000,0.00000000,
0.584062,-0.1140,0.4188,0.8509,-0.2333,-0.2207,0.1579,0.2841,0.4321,0.1110,57.4301,2.2829,3.8571,189.6562,-25.7969,-3.6719,0.00000000,0.00000000,0.00000000,
0.597969,-0.1140,0.4188,0.8509,-0.2333,-0.2207,0.1579,0.2841,0.4321,0.1110,57.4301,2.2829,3.8571,189.9062,-24.5312,-2.5000,0.00000000,0.00000000,0.00000000,
0.622786,-0.1140,0.4188,0.8509,-0.2333,-0.2207,0.1579,0.2841,0.4321,0.1110,58.4514,3.1472,4.7376,189.9062,-24.5312,-2.5000,0.00000000,0.00000000,0.00000000,
0.641705,-0.1140,0.4188,0.8509,-0.2333,-0.2207,0.1579,0.2841,0.4321,0.1110,58.4514,3.1472,4.7376,188.6719,-25.2500,-3.0625,0.00000000,0.00000000,0.00000000,
0.646387,-0.1140,0.4188,0.8509,-0.2333,-0.2207,0.1579,0.3785,1.0375,-0.8189,58.4514,3.1472,4.7376,188.6719,-25.2500,-3.0625,0.00000000,0.00000000,0.00000000,
0.650236,-0.4014,0.2324,0.7945,-0.2333,-0.2207,0.1579,0.3785,1.0375,-0.8189,58.4514,3.1472,4.7376,188.6719,-25.2500,-3.0625,0.00000000,0.00000000,0.00000000,
0.653481,-0.4014,0.2324,0.7945,0.0289,-0.3336,-0.9797,0.3785,1.0375,-0.8189,58.4514,3.1472,4.7376,188.6719,-25.2500,-3.0625,0.00000000,0.00000000,0.00000000,
0.681206,-0.4014,0.2324,0.7945,0.0289,-0.3336,-0.9797,0.3785,1.0375,-0.8189,58.4514,3.1472,4.7376,189.9062,-23.3594,-2.0469,0.00000000,0.00000000,0.00000000,
0.684805,-0.4014,0.2324,0.7945,0.0289,-0.3336,-0.9797,0.3785,1.0375,-0.8189,62.7525,2.1528,6.8945,189.9062,-23.3594,-2.0469,0.00000000,0.00000000,0.00000000,
0.699474,-0.4014,0.2324,0.7945,-2.2020,-1.9950,-0.4329,0.3785,1.0375,-0.8189,62.7525,2.1528,6.8945,189.9062,-23.3594,-2.0469,0.00000000,0.00000000,0.00000000,
0.702993,-0.4014,0.2324,0.7945,-1.1169,-2.0293,0.0027,0.3785,1.0375,-0.8189,62.7525,2.1528,6.8945,189.9062,-23.3594,-2.0469,0.00000000,0.00000000,0.00000000,
0.712232,-0.3237,0.1997,0.6363,-1.1169,-2.0293,0.0027,0.3785,1.0375,-0.8189,62.7525,2.1528,6.8945,189.9062,-23.3594,-2.0469,0.00000000,0.00000000,0.00000000,
0.719342,-0.3237,0.1997,0.6363,-1.1169,-2.0293,0.0027,1.0576,2.3476,-1.3092,62.7525,2.1528,6.8945,189.9062,-23.3594,-2.0469,0.00000000,0.00000000,0.00000000,
0.722099,-0.3237,0.1997,0.6363,-1.1169,-2.0293,0.0027,1.0576,2.3476,-1.3092,62.7525,2.1528,6.8945,190.1719,-23.6562,-2.6094,0.00000000,0.00000000,0.00000000,
0.742026,-0.3237,0.1997,0.6363,-1.1169,-2.0293,0.0027,1.0576,2.3476,-1.3092,69.7086,4.0409,11.3973,190.1719,-23.6562,-2.6094,0.00000000,0.00000000,0.00000000,
0.761250,-0.3237,0.1997,0.6363,-1.1169,-2.0293,0.0027,1.0836,3.1918,-2.7478,69.7086,4.0409,11.3973,190.1719,-23.6562,-2.6094,0.00000000,0.00000000,0.00000000,
0.767027,-0.3237,0.1997,0.6363,1.1583,-2.0333,-1.2624,1.0836,3.1918,-2.7478,69.7086,4.0409,11.3973,190.1719,-23.6562,-2.6094,0.00000000,0.00000000,0.00000000,
0.770943,-0.3237,0.1997,0.6363,1.1583,-2.0333,-1.2624,1.0836,3.1918,-2.7478,69.7086,4.0409,11.3973,190.4219,-24.1406,-3.3438,0.00000000,0.00000000,0.00000000,
0.774541,-0.3293,-0.0205,0.7205,1.1583,-2.0333,-1.2624,1.0836,3.1918,-2.7478,69.7086,4.0409,11.3973,190.4219,-24.1406,-3.3438,0.00000000,0.00000000,0.00000000,
0.806415,-0.3293,-0.0205,0.7205,1.1583,-2.0333,-1.2624,1.0836,3.1918,-2.7478,69.7086,4.0409,11.3973,190.5938,-24.1719,-4.7188,0.00000000,0.00000000,0.00000000,
0.820730,-0.3293,-0.0205,0.7205,2.3756,-3.1663,0.9737,1.0836,3.1918,-2.7478,69.7086,4.0409,11.3973,190.5938,-24.1719,-4.7188,0.00000000,0.00000000,0.00000000,
0.825001,-0.3293,-0.0205,0.7205,3.6809,-2.5085,2.2480,1.0836,3.1918,-2.7478,69.7086,4.0409,11.3973,190.5938,-24.1719,-4.7188,0.00000000,0.00000000,0.00000000,
0.828223,-0.3293,-0.0205,0.7205,3.6809,-2.5085,2.2480,1.0836,3.1918,-2.7478,79.8275,7.8547,22.3096,190.5938,-24.1719,-4.7188,0.00000000,0.00000000,0.00000000,
0.844341,-0.3293,-0.0205,0.7205,3.6809,-2.5085,2.2480,2.7268,4.5789,-4.5398,79.8275,7.8547,22.3096,190.5938,-24.1719,-4.7188,0.00000000,0.00000000,0.00000000,
0.848723,-0.4780,-0.3817,0.4987,3.6809,-2.5085,2.2480,2.7268,4.5789,-4.5398,79.8275,7.8547,22.3096,190.5938,-24.1719,-4.7188,0.00000000,0.00000000,0.00000000,
0.851524,-0.4780,-0.3817,0.4987,3.6809,-2.5085,2.2480,2.7268,4.5789,-4.5398,79.8275,7.8547,22.3096,190.1094,-24.8906,-5.5781,0.00000000,0.00000000,0.00000000,
0.881137,-0.4780,-0.3817,0.4987,2.8095,-4.4223,0.7487,2.7268,4.5789,-4.5398,79.8275,7.8547,22.3096,190.1094,-24.8906,-5.5781,0.00000000,0.00000000,0.00000000,
0.885240,-0.4780,-0.3817,0.4987,2.8095,-4.4223,0.7487,2.7268,4.5789,-4.5398,90.5561,21.3900,38.5418,190.1094,-24.8906,-5.5781,0.00000000,0.00000000,0.00000000,
0.893347,-0.4780,-0.3817,0.4987,2.8095,-4.4223,0.7487,2.7268,4.5789,-4.5398,90.5561,21.3900,38.5418,190.1406,-25.5625,-7.8594,0.00000000,0.00000000,0.00000000,
0.913467,-0.7757,-0.8943,0.0167,2.8095,-4.4223,0.7487,2.7268,4.5789,-4.5398,90.5561,21.3900,38.5418,190.1406,-25.5625,-7.8594,0.00000000,0.00000000,0.00000000,
0.920094,-0.7757,-0.8943,0.0167,2.8095,-4.4223,0.7487,4.1633,4.2254,-6.3967,90.5561,21.3900,38.5418,190.1406,-25.5625,-7.8594,0.00000000,0.00000000,0.00000000,
0.930054,-0.7757,-0.8943,0.0167,2.8095,-4.4223,0.7487,4.1633,4.2254,-6.3967,90.5561,21.3900,38.5418,192.6406,-25.9688,-11.3906,0.00000000,0.00000000,0.00000000,
0.944106,-0.7757,-0.8943,0.0167,2.9015,-7.3055,-0.6757,4.1633,4.2254,-6.3967,90.5561,21.3900,38.5418,192.6406,-25.9688,-11.3906,0.00000000,0.00000000,0.00000000,
0.948087,-0.7757,-0.8943,0.0167,2.4622,-4.9250,0.0299,4.1633,4.2254,-6.3967,90.5561,21.3900,38.5418,192.6406,-25.9688,-11.3906,0.00000000,0.00000000,0.00000000,
0.950369,-0.7757,-0.8943,0.0167,2.4622,-4.9250,0.0299,4.1633,4.2254,-6.3967,92.6613,45.9639,50.1794,192.6406,-25.9688,-11.3906,0.00000000,0.00000000,0.00000000,
0.960362,-0.7757,-0.8943,0.0167,2.4622,-4.9250,0.0299,3.8290,1.3378,-6.2071,92.6613,45.9639,50.1794,192.6406,-25.9688,-11.3906,0.00000000,0.00000000,0.00000000,
0.971270,-2.4210,-0.4470,0.1146,2.4622,-4.9250,0.0299,3.8290,1.3378,-6.2071,92.6613,45.9639,50.1794,192.6406,-25.9688,-11.3906,0.00000000,0.00000000,0.00000000,
0.974624,-2.4210,-0.4470,0.1146,2.4622,-4.9250,0.0299,3.8290,1.3378,-6.2071,92.6613,45.9639,50.1794,194.4531,-27.7344,-17.2656,0.00000000,0.00000000,0.00000000,
1.001353,-2.4210,-0.4470,0.1146,-8.3309,-2.9045,0.2025,3.8290,1.3378,-6.2071,92.6613,45.9639,50.1794,194.4531,-27.7344,-17.2656,0.00000000,0.00000000,0.00000000,
1.014703,-2.4210,-0.4470,0.1146,-8.3309,-2.9045,0.2025,3.8290,1.3378,-6.2071,92.6613,45.9639,50.1794,197.2969,-27.6406,-24.5625,0.00000000,0.00000000,0.00000000,
1.022093,-2.4210,-0.4470,0.1146,-8.3309,-2.9045,0.2025,3.8290,1.3378,-6.2071,89.9054,63.7611,47.5690,197.2969,-27.6406,-24.5625,0.00000000,0.00000000,0.00000000,
1.042079,-2.5615,0.3284,-0.8199,-8.3309,-2.9045,0.2025,3.8290,1.3378,-6.2071,89.9054,63.7611,47.5690,197.2969,-27.6406,-24.5625,0.00000000,0.00000000,0.00000000,
1.045468,-2.5615,0.3284,-0.8199,-8.3309,-2.9045,0.2025,2.0016,-1.7393,-0.6359,89.9054,63.7611,47.5690,197.2969,-27.6406,-24.5625,0.00000000,0.00000000,0.00000000,
1.059959,-2.5615,0.3284,-0.8199,-8.3309,-2.9045,0.2025,2.0016,-1.7393,-0.6359,89.9054,63.7611,47.5690,202.7344,-26.1406,-34.4688,0.00000000,0.00000000,0.00000000,
1.063584,-2.5615,0.3284,-0.8199,-22.4180,6.1908,-6.8750,2.0016,-1.7393,-0.6359,89.9054,63.7611,47.5690,202.7344,-26.1406,-34.4688,0.00000000,0.00000000,0.00000000,
1.065849,-2.5615,0.3284,-0.8199,-21.0204,5.2544,-7.3793,2.0016,-1.7393,-0.6359,89.9054,63.7611,47.5690,202.7344,-26.1406,-34.4688,0.00000000,0.00000000,0.00000000,
1.083103,-2.5615,0.3284,-0.8199,-21.0204,5.2544,-7.3793,2.0016,-1.7393,-0.6359,94.3501,63.0377,40.9012,202.7344,-26.1406,-34.4688,0.00000000,0.00000000,0.00000000,
1.097785,-2.5615,0.3284,-0.8199,-21.0204,5.2544,-7.3793,2.0016,-1.7393,-0.6359,94.3501,63.0377,40.9012,211.5938,-23.1719,-48.5625,0.00000000,0.00000000,0.00000000,
1.101396,-1.3237,0.0883,-0.5018,-21.0204,5.2544,-7.3793,2.0016,-1.7393,-0.6359,94.3501,63.0377,40.9012,211.5938,-23.1719,-48.5625,0.00000000,0.00000000,0.00000000,
1.124044,-1.3237,0.0883,-0.5018,-21.0204,5.2544,-7.3793,-0.9450,-1.3736,3.0400,94.3501,63.0377,40.9012,211.5938,-23.1719,-48.5625,0.00000000,0.00000000,0.00000000,
1.127062,-1.3237,0.0883,-0.5018,-7.5775,5.4774,-9.3578,-0.9450,-1.3736,3.0400,94.3501,63.0377,40.9012,211.5938,-23.1719,-48.5625,0.00000000,0.00000000,0.00000000,
1.138669,-1.3237,0.0883,-0.5018,-7.5775,5.4774,-9.3578,-0.9450,-1.3736,3.0400,94.3501,63.0377,40.9012,224.5312,-16.2656,-63.8125,0.00000000,0.00000000,0.00000000,
1.157249,-1.3237,0.0883,-0.5018,-7.5775,5.4774,-9.3578,-0.9450,-1.3736,3.0400,96.5438,53.1549,40.0230,224.5312,-16.2656,-63.8125,0.00000000,0.00000000,0.00000000,
1.164379,-1.3237,0.0883,-0.5018,-7.5775,5.4774,-9.3578,-1.0320,1.0263,2.8938,96.5438,53.1549,40.0230,224.5312,-16.2656,-63.8125,0.00000000,0.00000000,0.00000000,
1.174675,-0.0767,-0.6165,0.1469,-7.5775,5.4774,-9.3578,-1.0320,1.0263,2.8938,96.5438,53.1549,40.0230,224.5312,-16.2656,-63.8125,0.00000000,0.00000000,0.00000000,
1.180984,-0.0767,-0.6165,0.1469,-7.5775,5.4774,-9.3578,-1.0320,1.0263,2.8938,96.5438,53.1549,40.0230,244.7500,-4.6406,-80.7969,0.00000000,0.00000000,0.00000000,
1.183743,-0.0767,-0.6165,0.1469,2.0858,0.1015,-5.4027,-1.0320,1.0263,2.8938,96.5438,53.1549,40.0230,244.7500,-4.6406,-80.7969,0.00000000,0.00000000,0.00000000,
1.185357,-0.0767,-0.6165,0.1469,2.1427,-0.9632,-4.5375,-1.0320,1.0263,2.8938,96.5438,53.1549,40.0230,244.7500,-4.6406,-80.7969,0.00000000,0.00000000,0.00000000,
1.222416,-0.0767,-0.6165,0.1469,2.1427,-0.9632,-4.5375,-1.0320,1.0263,2.8938,94.6124,45.9244,45.8560,244.7500,-4.6406,-80.7969,0.00000000,0.00000000,0.00000000,
1.227417,-0.0767,-0.6165,0.1469,2.1427,-0.9632,-4.5375,-1.0320,1.0263,2.8938,94.6124,45.9244,45.8560,270.4688,10.7969,-79.1094,0.00000000,0.00000000,0.00000000,
1.246367,-0.5192,-0.2841,-0.6709,2.1427,-0.9632,-4.5375,-1.0320,1.0263,2.8938,94.6124,45.9244,45.8560,270.4688,10.7969,-79.1094,0.00000000,0.00000000,0.00000000,
1.250265,-0.5192,-0.2841,-0.6709,2.1427,-0.9632,-4.5375,0.0097,2.1257,1.0275,94.6124,45.9244,45.8560,270.4688,10.7969,-79.1094,0.00000000,0.00000000,0.00000000,
1.252479,-0.5192,-0.2841,-0.6709,8.7922,-7.3761,-0.3296,0.0097,2.1257,1.0275,94.6124,45.9244,45.8560,270.4688,10.7969,-79.1094,0.00000000,0.00000000,0.00000000,
1.264289,-0.5192,-0.2841,-0.6709,8.7922,-7.3761,-0.3296,0.0097,2.1257,1.0275,94.6124,45.9244,45.8560,293.1094,24.5000,-65.4219,0.00000000,0.00000000,0.00000000,
1.282764,-0.5192,-0.2841,-0.6709,8.7922,-7.3761,-0.3296,0.0097,2.1257,1.0275,92.7917,40.4176,49.0733,293.1094,24.5000,-65.4219,0.00000000,0.00000000,0.00000000,
1.302862,-0.5192,-0.2841,-0.6709,3.9656,-1.9220,-6.7394,0.0097,2.1257,1.0275,92.7917,40.4176,49.0733,293.1094,24.5000,-65.4219,0.00000000,0.00000000,0.00000000,
1.308285,-1.3968,-0.2296,0.8869,3.9656,-1.9220,-6.7394,0.0097,2.1257,1.0275,92.7917,40.4176,49.0733,293.1094,24.5000,-65.4219,0.00000000,0.00000000,0.00000000,
1.311202,-1.3968,-0.2296,0.8869,3.7697,-2.0820,-6.5865,0.0097,2.1257,1.0275,92.7917,40.4176,49.0733,293.1094,24.5000,-65.4219,0.00000000,0.00000000,0.00000000,
1.313684,-1.3968,-0.2296,0.8869,3.7697,-2.0820,-6.5865,0.0097,2.1257,1.0275,92.7917,40.4176,49.0733,304.2812,30.1250,-58.8438,0.00000000,0.00000000,0.00000000,
1.328321,-1.3968,-0.2296,0.8869,3.7697,-2.0820,-6.5865,-3.3679,-0.4143,0.4456,92.7917,40.4176,49.0733,304.2812,30.1250,-58.8438,0.00000000,0.00000000,0.00000000,
1.343652,-1.3968,-0.2296,0.8869,3.7697,-2.0820,-6.5865,-3.3679,-0.4143,0.4456,92.4735,36.4713,47.3293,304.2812,30.1250,-58.8438,0.00000000,0.00000000,0.00000000,
1.347417,-1.3968,-0.2296,0.8869,3.7697,-2.0820,-6.5865,-3.3679,-0.4143,0.4456,92.4735,36.4713,47.3293,300.0625,26.3750,-60.0312,0.00000000,0.00000000,0.00000000,
1.364791,-1.3968,-0.2296,0.8869,-3.4107,-2.4736,11.0236,-3.3679,-0.4143,0.4456,92.4735,36.4713,47.3293,300.0625,26.3750,-60.0312,0.00000000,0.00000000,0.00000000,
1.369100,-1.3968,-0.2296,0.8869,-3.4107,-2.4736,11.0236,0.2711,-0.3823,0.5935,92.4735,36.4713,47.3293,300.0625,26.3750,-60.0312,0.00000000,0.00000000,0.00000000,
1.375690,-1.3721,0.2049,0.1148,-3.4107,-2.4736,11.0236,0.2711,-0.3823,0.5935,92.4735,36.4713,47.3293,300.0625,26.3750,-60.0312,0.00000000,0.00000000,0.00000000,
1.389425,-1.3721,0.2049,0.1148,-3.4107,-2.4736,11.0236,0.2711,-0.3823,0.5935,92.4735,36.4713,47.3293,290.6250,20.3750,-63.7812,0.00000000,0.00000000,0.00000000,
1.425194,-1.3721,0.2049,0.1148,-3.4107,-2.4736,11.0236,0.2711,-0.3823,0.5935,92.6657,34.3915,45.2546,290.6250,20.3750,-63.7812,0.00000000,0.00000000,0.00000000,
1.429378,-1.3721,0.2049,0.1148,-3.2887,1.1499,0.7539,0.2711,-0.3823,0.5935,92.6657,34.3915,45.2546,290.6250,20.3750,-63.7812,0.00000000,0.00000000,0.00000000,
1.432288,-1.3721,0.2049,0.1148,-3.2141,0.5504,0.3355,0.2711,-0.3823,0.5935,92.6657,34.3915,45.2546,290.6250,20.3750,-63.7812,0.00000000,0.00000000,0.00000000,
1.434894,-1.3721,0.2049,0.1148,-3.2141,0.5504,0.3355,0.2711,-0.3823,0.5935,92.6657,34.3915,45.2546,280.3750,13.4844,-69.6719,0.00000000,0.00000000,0.00000000,
1.444209,-0.7365,0.1382,0.1073,-3.2141,0.5504,0.3355,0.2711,-0.3823,0.5935,92.6657,34.3915,45.2546,280.3750,13.4844,-69.6719,0.00000000,0.00000000,0.00000000,
1.447991,-0.7365,0.1382,0.1073,-3.2141,0.5504,0.3355,-0.3365,-1.1121,1.6511,92.6657,34.3915,45.2546,280.3750,13.4844,-69.6719,0.00000000,0.00000000,0.00000000,
1.474742,-0.7365,0.1382,0.1073,-3.2141,0.5504,0.3355,-0.3365,-1.1121,1.6511,92.6657,34.3915,45.2546,272.6406,7.7344,-76.0938,0.00000000,0.00000000,0.00000000,
1.482917,-0.7365,0.1382,0.1073,-3.2141,0.5504,0.3355,-0.3365,-1.1121,1.6511,92.3069,27.8507,42.7181,272.6406,7.7344,-76.0938,0.00000000,0.00000000,0.00000000,
1.486368,-0.7365,0.1382,0.1073,1.2501,-0.1495,-0.3558,-0.3365,-1.1121,1.6511,92.3069,27.8507,42.7181,272.6406,7.7344,-76.0938,0.00000000,0.00000000,0.00000000,
1.504995,0.1384,-0.1929,-0.1126,1.2501,-0.1495,-0.3558,-0.3365,-1.1121,1.6511,92.3069,27.8507,42.7181,272.6406,7.7344,-76.0938,0.00000000,0.00000000,0.00000000,
1.514323,0.1384,-0.1929,-0.1126,1.2501,-0.1495,-0.3558,-0.3365,-1.1121,1.6511,92.3069,27.8507,42.7181,272.1094,5.4375,-82.1094,0.00000000,0.00000000,0.00000000,
1.525538,0.1384,-0.1929,-0.1126,1.2501,-0.1495,-0.3558,0.2463,0.6061,0.7643,92.3069,27.8507,42.7181,272.1094,5.4375,-82.1094,0.00000000,0.00000000,0.00000000,
1.545499,0.1384,-0.1929,-0.1126,1.2501,-0.1495,-0.3558,0.2463,0.6061,0.7643,91.7495,31.6540,47.5470,272.1094,5.4375,-82.1094,0.00000000,0.00000000,0.00000000,
1.549871,0.1384,-0.1929,-0.1126,8.6144,-4.2395,-0.5049,0.2463,0.6061,0.7643,91.7495,31.6540,47.5470,272.1094,5.4375,-82.1094,0.00000000,0.00000000,0.00000000,
1.552346,0.1384,-0.1929,-0.1126,8.4094,-3.5711,0.3836,0.2463,0.6061,0.7643,91.7495,31.6540,47.5470,272.1094,5.4375,-82.1094,0.00000000,0.00000000,0.00000000,
1.560093,0.1384,-0.1929,-0.1126,8.4094,-3.5711,0.3836,0.2463,0.6061,0.7643,91.7495,31.6540,47.5470,268.3438,2.8906,-86.4688,0.00000000,0.00000000,0.00000000,
1.567752,0.1384,-0.1929,-0.1126,8.4094,-3.5711,0.3836,0.0104,2.0303,-4.5064,91.7495,31.6540,47.5470,268.3438,2.8906,-86.4688,0.00000000,0.00000000,0.00000000,
1.575639,-0.7632,-0.8716,-0.4203,8.4094,-3.5711,0.3836,0.0104,2.0303,-4.5064,91.7495,31.6540,47.5470,268.3438,2.8906,-86.4688,0.00000000,0.00000000,0.00000000,
1.597581,-0.7632,-0.8716,-0.4203,8.4094,-3.5711,0.3836,0.0104,2.0303,-4.5064,91.7495,31.6540,47.5470,259.2656,2.2344,-86.6875,0.00000000,0.00000000,0.00000000,
1.609355,-0.7632,-0.8716,-0.4203,13.1285,-5.0876,-5.1543,0.0104,2.0303,-4.5064,91.7495,31.6540,47.5470,259.2656,2.2344,-86.6875,0.00000000,0.00000000,0.00000000,
1.626015,-0.7632,-0.8716,-0.4203,13.1285,-5.0876,-5.1543,0.0104,2.0303,-4.5064,92.8259,44.1465,50.5534,259.2656,2.2344,-86.6875,0.00000000,0.00000000,0.00000000,
1.635942,-2.6162,-0.4619,0.3969,13.1285,-5.0876,-5.1543,0.0104,2.0303,-4.5064,92.8259,44.1465,50.5534,259.2656,2.2344,-86.6875,0.00000000,0.00000000,0.00000000,
1.640117,-2.6162,-0.4619,0.3969,13.1285,-5.0876,-5.1543,0.0104,2.0303,-4.5064,92.8259,44.1465,50.5534,255.7031,1.0000,-85.1250,0.00000000,0.00000000,0.00000000,
1.648445,-2.6162,-0.4619,0.3969,13.1285,-5.0876,-5.1543,-0.6948,-0.8781,-3.5975,92.8259,44.1465,50.5534,255.7031,1.0000,-85.1250,0.00000000,0.00000000,0.00000000,
1.668546,-2.6162,-0.4619,0.3969,-21.7318,-4.1246,6.0388,-0.6948,-0.8781,-3.5975,92.8259,44.1465,50.5534,255.7031,1.0000,-85.1250,0.00000000,0.00000000,0.00000000,
1.672015,-2.6162,-0.4619,0.3969,-20.8833,-3.9107,4.9901,-0.6948,-0.8781,-3.5975,92.8259,44.1465,50.5534,255.7031,1.0000,-85.1250,0.00000000,0.00000000,0.00000000,
1.691840,-2.6162,-0.4619,0.3969,-20.8833,-3.9107,4.9901,-0.6948,-0.8781,-3.5975,92.8259,44.1465,50.5534,255.7344,-0.5000,-84.7969,0.00000000,0.00000000,0.00000000,
1.695349,-2.6162,-0.4619,0.3969,-20.8833,-3.9107,4.9901,-0.6948,-0.8781,-3.5975,95.5867,45.7550,44.4106,255.7344,-0.5000,-84.7969,0.00000000,0.00000000,0.00000000,
1.710243,-2.0817,-0.2611,0.4470,-20.8833,-3.9107,4.9901,-0.6948,-0.8781,-3.5975,95.5867,45.7550,44.4106,255.7344,-0.5000,-84.7969,0.00000000,0.00000000,0.00000000,
1.726535,-2.0817,-0.2611,0.4470,-20.8833,-3.9107,4.9901,-0.6948,-0.8781,-3.5975,95.5867,45.7550,44.4106,247.5000,-7.4531,-77.3594,0.00000000,0.00000000,0.00000000,
1.730439,-2.0817,-0.2611,0.4470,-4.1232,-0.9276,-1.5267,-0.6948,-0.8781,-3.5975,95.5867,45.7550,44.4106,247.5000,-7.4531,-77.3594,0.00000000,0.00000000,0.00000000,
1.732693,-2.0817,-0.2611,0.4470,-4.1232,-0.9276,-1.5267,-0.5611,-2.9887,1.3429,95.5867,45.7550,44.4106,247.5000,-7.4531,-77.3594,0.00000000,0.00000000,0.00000000,
1.751416,-2.0817,-0.2611,0.4470,-4.1232,-0.9276,-1.5267,-0.5611,-2.9887,1.3429,95.1081,38.6194,43.1386,247.5000,-7.4531,-77.3594,0.00000000,0.00000000,0.00000000,
1.764041,-2.0817,-0.2611,0.4470,-4.1232,-0.9276,-1.5267,-0.5611,-2.9887,1.3429,95.1081,38.6194,43.1386,245.1250,-9.9375,-76.2031,0.00000000,0.00000000,0.00000000,
1.767421,-2.0817,-0.2611,0.4470,-4.1232,-0.9276,-1.5267,1.3393,2.2173,5.2576,95.1081,38.6194,43.1386,245.1250,-9.9375,-76.2031,0.00000000,0.00000000,0.00000000,
1.776559,-0.0695,-0.6399,-0.0987,-4.1232,-0.9276,-1.5267,1.3393,2.2173,5.2576,95.1081,38.6194,43.1386,245.1250,-9.9375,-76.2031,0.00000000,0.00000000,0.00000000,
1.793307,-0.0695,-0.6399,-0.0987,-9.8664,-1.4666,5.0975,1.3393,2.2173,5.2576,95.1081,38.6194,43.1386,245.1250,-9.9375,-76.2031,0.00000000,0.00000000,0.00000000,
1.797350,-0.0695,-0.6399,-0.0987,-9.4063,-4.0926,6.3377,1.3393,2.2173,5.2576,95.1081,38.6194,43.1386,245.1250,-9.9375,-76.2031,0.00000000,0.00000000,0.00000000,
1.809828,-0.0695,-0.6399,-0.0987,-9.4063,-4.0926,6.3377,1.3393,2.2173,5.2576,95.1081,38.6194,43.1386,249.2969,-7.3281,-81.5156,0.00000000,0.00000000,0.00000000,
1.821732,-0.0695,-0.6399,-0.0987,-9.4063,-4.0926,6.3377,1.3393,2.2173,5.2576,88.7296,27.5462,48.6629,249.2969,-7.3281,-81.5156,0.00000000,0.00000000,0.00000000,
1.836518,0.2880,0.0064,-0.1381,-9.4063,-4.0926,6.3377,1.3393,2.2173,5.2576,88.7296,27.5462,48.6629,249.2969,-7.3281,-81.5156,0.00000000,0.00000000,0.00000000,
1.845403,0.2880,0.0064,-0.1381,16.3713,-9.1237,-3.6061,1.3393,2.2173,5.2576,88.7296,27.5462,48.6629,249.2969,-7.3281,-81.5156,0.00000000,0.00000000,0.00000000,
1.849375,0.2880,0.0064,-0.1381,16.3713,-9.1237,-3.6061,0.4065,1.0570,3.0800,88.7296,27.5462,48.6629,249.2969,-7.3281,-81.5156,0.00000000,0.00000000,0.00000000,
1.851833,0.2880,0.0064,-0.1381,16.3713,-9.1237,-3.6061,0.4065,1.0570,3.0800,88.7296,27.5462,48.6629,261.6875,174.1406,-84.1250,0.00000000,0.00000000,0.00000000,
1.882480,0.2880,0.0064,-0.1381,16.3713,-9.1237,-3.6061,0.4065,1.0570,3.0800,85.0704,23.2461,49.2243,261.6875,174.1406,-84.1250,0.00000000,0.00000000,0.00000000,
1.888409,0.2880,0.0064,-0.1381,16.3713,-9.1237,-3.6061,0.4065,1.0570,3.0800,85.0704,23.2461,49.2243,272.3438,160.9062,-70.8750,0.00000000,0.00000000,0.00000000,
1.909416,-0.4190,0.5832,0.1426,16.3713,-9.1237,-3.6061,0.4065,1.0570,3.0800,85.0704,23.2461,49.2243,272.3438,160.9062,-70.8750,0.00000000,0.00000000,0.00000000,
1.913090,-0.4190,0.5832,0.1426,12.5764,-2.1759,-0.0773,0.4065,1.0570,3.0800,85.0704,23.2461,49.2243,272.3438,160.9062,-70.8750,0.00000000,0.00000000,0.00000000,
1.915568,-0.4190,0.5832,0.1426,12.1444,-2.1424,-0.7731,0.4065,1.0570,3.0800,85.0704,23.2461,49.2243,272.3438,160.9062,-70.8750,0.00000000,0.00000000,0.00000000,
1.927355,-0.4190,0.5832,0.1426,12.1444,-2.1424,-0.7731,-0.4652,-1.5955,0.0496,85.0704,23.2461,49.2243,272.3438,160.9062,-70.8750,0.00000000,0.00000000,0.00000000,
1.931183,-0.4190,0.5832,0.1426,12.1444,-2.1424,-0.7731,-0.4652,-1.5955,0.0496,85.0704,23.2461,49.2243,271.2500,19.5938,-70.0156,0.00000000,0.00000000,0.00000000,
1.942493,-0.4190,0.5832,0.1426,12.1444,-2.1424,-0.7731,-0.4652,-1.5955,0.0496,88.4078,24.7564,47.6042,271.2500,19.5938,-70.0156,0.00000000,0.00000000,0.00000000,
1.968198,-0.4190,0.5832,0.1426,1.3678,4.1733,1.0183,-0.4652,-1.5955,0.0496,88.4078,24.7564,47.6042,271.2500,19.5938,-70.0156,0.00000000,0.00000000,0.00000000,
1.972695,-0.4190,0.5832,0.1426,1.3678,4.1733,1.0183,-1.5711,0.6940,-1.8329,88.4078,24.7564,47.6042,271.2500,19.5938,-70.0156,0.00000000,0.00000000,0.00000000,
1.976226,-0.4190,0.5832,0.1426,1.3678,4.1733,1.0183,-1.5711,0.6940,-1.8329,88.4078,24.7564,47.6042,265.2500,16.9219,-70.0938,0.00000000,0.00000000,0.00000000,
1.979390,-2.0331,-0.0154,0.2277,1.3678,4.1733,1.0183,-1.5711,0.6940,-1.8329,88.4078,24.7564,47.6042,265.2500,16.9219,-70.0938,0.00000000,0.00000000,0.00000000,
2.014543,-2.0331,-0.0154,0.2277,1.3678,4.1733,1.0183,-1.5711,0.6940,-1.8329,88.4078,24.7564,47.6042,257.9219,9.6250,-75.0781,0.00000000,0.00000000,0.00000000,
2.021642,-2.0331,-0.0154,0.2277,1.3678,4.1733,1.0183,-1.5711,0.6940,-1.8329,88.9439,24.5104,47.5977,257.9219,9.6250,-75.0781,0.00000000,0.00000000,0.00000000,
2.030371,-2.0331,-0.0154,0.2277,-9.8209,-2.2614,2.1002,-1.5711,0.6940,-1.8329,88.9439,24.5104,47.5977,257.9219,9.6250,-75.0781,0.00000000,0.00000000,0.00000000,
2.034038,-2.0331,-0.0154,0.2277,-9.6107,-2.6773,1.9874,-1.5711,0.6940,-1.8329,88.9439,24.5104,47.5977,257.9219,9.6250,-75.0781,0.00000000,0.00000000,0.00000000,
2.037129,-0.3349,-0.2317,0.0892,-9.6107,-2.6773,1.9874,-1.5711,0.6940,-1.8329,88.9439,24.5104,47.5977,257.9219,9.6250,-75.0781,0.00000000,0.00000000,0.00000000,
2.050601,-0.3349,-0.2317,0.0892,-9.6107,-2.6773,1.9874,0.8973,0.0150,1.3445,88.9439,24.5104,47.5977,257.9219,9.6250,-75.0781,0.00000000,0.00000000,0.00000000,
2.059201,-0.3349,-0.2317,0.0892,-9.6107,-2.6773,1.9874,0.8973,0.0150,1.3445,88.9439,24.5104,47.5977,247.9531,-4.6094,-83.8438,0.00000000,0.00000000,0.00000000,
2.082448,-0.3349,-0.2317,0.0892,-9.6107,-2.6773,1.9874,0.8973,0.0150,1.3445,85.6367,22.8193,50.0707,247.9531,-4.6094,-83.8438,0.00000000,0.00000000,0.00000000,
2.093467,-0.3349,-0.2317,0.0892,6.1696,-5.1526,0.3264,0.8973,0.0150,1.3445,85.6367,22.8193,50.0707,247.9531,-4.6094,-83.8438,0.00000000,0.00000000,0.00000000,
2.098140,-0.3349,-0.2317,0.0892,6.1696,-5.1526,0.3264,2.5812,0.4490,1.7804,85.6367,22.8193,50.0707,247.9531,-4.6094,-83.8438,0.00000000,0.00000000,0.00000000,
2.101388,-0.3349,-0.2317,0.0892,6.1696,-5.1526,0.3264,2.5812,0.4490,1.7804,85.6367,22.8193,50.0707,240.1562,-13.4219,-76.5781,0.00000000,0.00000000,0.00000000,
2.110820,-0.5957,0.1744,-0.4229,6.1696,-5.1526,0.3264,2.5812,0.4490,1.7804,85.6367,22.8193,50.0707,240.1562,-13.4219,-76.5781,0.00000000,0.00000000,0.00000000,
2.143242,-0.5957,0.1744,-0.4229,6.1696,-5.1526,0.3264,2.5812,0.4490,1.7804,85.6367,22.8193,50.0707,235.4844,-162.0938,-72.0938,0.00000000,0.00000000,0.00000000,
2.150114,-0.5957,0.1744,-0.4229,6.1696,-5.1526,0.3264,2.5812,0.4490,1.7804,88.8465,25.8752,49.1330,235.4844,-162.0938,-72.0938,0.00000000,0.00000000,0.00000000,
2.154348,-0.5957,0.1744,-0.4229,6.0895,-3.0826,-3.1471,2.5812,0.4490,1.7804,88.8465,25.8752,49.1330,235.4844,-162.0938,-72.0938,0.00000000,0.00000000,0.00000000,
2.158200,-0.5957,0.1744,-0.4229,5.9420,-2.8943,-4.1841,2.5812,0.4490,1.7804,88.8465,25.8752,49.1330,235.4844,-162.0938,-72.0938,0.00000000,0.00000000,0.00000000,
2.176807,-0.5957,0.1744,-0.4229,5.9420,-2.8943,-4.1841,1.5207,-1.2095,-2.6886,88.8465,25.8752,49.1330,235.4844,-162.0938,-72.0938,0.00000000,0.00000000,0.00000000,
2.180270,-1.1050,0.4131,0.3790,5.9420,-2.8943,-4.1841,1.5207,-1.2095,-2.6886,88.8465,25.8752,49.1330,235.4844,-162.0938,-72.0938,0.00000000,0.00000000,0.00000000,
2.182280,-1.1050,0.4131,0.3790,5.9420,-2.8943,-4.1841,1.5207,-1.2095,-2.6886,88.8465,25.8752,49.1330,235.3750,-18.1406,-71.5156,0.00000000,0.00000000,0.00000000,
2.210757,-1.1050,0.4131,0.3790,-0.8116,4.2931,5.3953,1.5207,-1.2095,-2.6886,88.8465,25.8752,49.1330,235.3750,-18.1406,-71.5156,0.00000000,0.00000000,0.00000000,
2.221432,-1.1050,0.4131,0.3790,-0.8116,4.2931,5.3953,1.5207,-1.2095,-2.6886,89.4985,38.4159,50.3515,235.3750,-18.1406,-71.5156,0.00000000,0.00000000,0.00000000,
2.224587,-1.1050,0.4131,0.3790,-0.8116,4.2931,5.3953,1.5207,-1.2095,-2.6886,89.4985,38.4159,50.3515,239.8438,-10.1094,-79.0156,0.00000000,0.00000000,0.00000000,
2.240731,-1.5013,-0.1443,-0.0548,-0.8116,4.2931,5.3953,1.5207,-1.2095,-2.6886,89.4985,38.4159,50.3515,239.8438,-10.1094,-79.0156,0.00000000,0.00000000,0.00000000,
2.251693,-1.5013,-0.1443,-0.0548,-0.8116,4.2931,5.3953,1.1429,0.5343,-2.8459,89.4985,38.4159,50.3515,239.8438,-10.1094,-79.0156,0.00000000,0.00000000,0.00000000,
2.264273,-1.5013,-0.1443,-0.0548,-0.8116,4.2931,5.3953,1.1429,0.5343,-2.8459,89.4985,38.4159,50.3515,238.7500,-7.3750,-82.1406,0.00000000,0.00000000,0.00000000,
2.275403,-1.5013,-0.1443,-0.0548,-3.2290,-0.7500,-2.8463,1.1429,0.5343,-2.8459,89.4985,38.4159,50.3515,238.7500,-7.3750,-82.1406,0.00000000,0.00000000,0.00000000,
2.279399,-1.5013,-0.1443,-0.0548,-3.1385,-0.3482,-3.0354,1.1429,0.5343,-2.8459,89.4985,38.4159,50.3515,238.7500,-7.3750,-82.1406,0.00000000,0.00000000,0.00000000,
2.282209,-1.5013,-0.1443,-0.0548,-3.1385,-0.3482,-3.0354,1.1429,0.5343,-2.8459,83.7298,48.8488,47.7301,238.7500,-7.3750,-82.1406,0.00000000,0.00000000,0.00000000,
2.292841,-1.5013,-0.1443,-0.0548,-3.1385,-0.3482,-3.0354,1.5173,0.6319,1.8556,83.7298,48.8488,47.7301,238.7500,-7.3750,-82.1406,0.00000000,0.00000000,0.00000000,
2.309546,-1.5013,-0.1443,-0.0548,-3.1385,-0.3482,-3.0354,1.5173,0.6319,1.8556,83.7298,48.8488,47.7301,237.6250,-10.1875,-79.3594,0.00000000,0.00000000,0.00000000,
2.313141,-1.1692,0.0353,0.2223,-3.1385,-0.3482,-3.0354,1.5173,0.6319,1.8556,83.7298,48.8488,47.7301,237.6250,-10.1875,-79.3594,0.00000000,0.00000000,0.00000000,
2.332177,-1.1692,0.0353,0.2223,-2.5046,-3.0773,2.0676,1.5173,0.6319,1.8556,83.7298,48.8488,47.7301,237.6250,-10.1875,-79.3594,0.00000000,0.00000000,0.00000000,
2.342598,-1.1692,0.0353,0.2223,-2.5046,-3.0773,2.0676,1.5173,0.6319,1.8556,75.0935,51.5734,51.0297,237.6250,-10.1875,-79.3594,0.00000000,0.00000000,0.00000000,
2.347569,-1.1692,0.0353,0.2223,-2.5046,-3.0773,2.0676,1.5173,0.6319,1.8556,75.0935,51.5734,51.0297,236.2812,-14.1406,-75.8125,0.00000000,0.00000000,0.00000000,
2.369634,-0.9566,0.2087,-0.4284,-2.5046,-3.0773,2.0676,1.5173,0.6319,1.8556,75.0935,51.5734,51.0297,236.2812,-14.1406,-75.8125,0.00000000,0.00000000,0.00000000,
2.373620,-0.9566,0.2087,-0.4284,-2.5046,-3.0773,2.0676,1.1724,1.1959,0.2334,75.0935,51.5734,51.0297,236.2812,-14.1406,-75.8125,0.00000000,0.00000000,0.00000000,
2.390806,-0.9566,0.2087,-0.4284,-1.0502,1.9690,-0.0986,1.1724,1.1959,0.2334,75.0935,51.5734,51.0297,236.2812,-14.1406,-75.8125,0.00000000,0.00000000,0.00000000,
2.394417,-0.9566,0.2087,-0.4284,-1.0502,1.9690,-0.0986,1.1724,1.1959,0.2334,75.0935,51.5734,51.0297,237.6406,-161.7656,-71.6875,0.00000000,0.00000000,0.00000000,
2.397236,-0.9566,0.2087,-0.4284,-1.0267,2.1938,0.1776,1.1724,1.1959,0.2334,75.0935,51.5734,51.0297,237.6406,-161.7656,-71.6875,0.00000000,0.00000000,0.00000000,
2.424974,-0.9566,0.2087,-0.4284,-1.0267,2.1938,0.1776,1.1724,1.1959,0.2334,75.2692,53.4859,52.3864,237.6406,-161.7656,-71.6875,0.00000000,0.00000000,0.00000000,
2.430631,-0.9566,0.2087,-0.4284,-1.0267,2.1938,0.1776,1.1724,1.1959,0.2334,75.2692,53.4859,52.3864,244.2969,-17.8906,-71.3750,0.00000000,0.00000000,0.00000000,
2.451386,-1.0310,0.1970,0.0764,-1.0267,2.1938,0.1776,1.1724,1.1959,0.2334,75.2692,53.4859,52.3864,244.2969,-17.8906,-71.3750,0.00000000,0.00000000,0.00000000,
2.455094,-1.0310,0.1970,0.0764,1.1691,0.9249,-1.4604,1.1724,1.1959,0.2334,75.2692,53.4859,52.3864,244.2969,-17.8906,-71.3750,0.00000000,0.00000000,0.00000000,
2.457977,-1.0310,0.1970,0.0764,1.1691,0.9249,-1.4604,-0.0250,-0.9813,0.2048,75.2692,53.4859,52.3864,244.2969,-17.8906,-71.3750,0.00000000,0.00000000,0.00000000,
2.473300,-1.0310,0.1970,0.0764,1.1691,0.9249,-1.4604,-0.0250,-0.9813,0.2048,75.2692,53.4859,52.3864,256.0625,-9.2500,-79.8125,0.00000000,0.00000000,0.00000000,
2.481920,-1.0310,0.1970,0.0764,1.1691,0.9249,-1.4604,-0.0250,-0.9813,0.2048,74.5018,53.6041,51.2424,256.0625,-9.2500,-79.8125,0.00000000,0.00000000,0.00000000,
2.492286,-1.0310,0.1970,0.0764,1.1691,0.9249,-1.4604,0.1760,0.3212,-0.0067,74.5018,53.6041,51.2424,256.0625,-9.2500,-79.8125,0.00000000,0.00000000,0.00000000,
2.510283,-1.0310,0.1970,0.0764,0.2289,-0.2316,1.1080,0.1760,0.3212,-0.0067,74.5018,53.6041,51.2424,256.0625,-9.2500,-79.8125,0.00000000,0.00000000,0.00000000,
2.514489,-0.9826,0.0187,-0.0847,0.2289,-0.2316,1.1080,0.1760,0.3212,-0.0067,74.5018,53.6041,51.2424,256.0625,-9.2500,-79.8125,0.00000000,0.00000000,0.00000000,
2.517826,-0.9826,0.0187,-0.0847,0.2120,-0.2100,1.2266,0.1760,0.3212,-0.0067,74.5018,53.6041,51.2424,256.0625,-9.2500,-79.8125,0.00000000,0.00000000,0.00000000,
2.520375,-0.9826,0.0187,-0.0847,0.2120,-0.2100,1.2266,0.1760,0.3212,-0.0067,74.5018,53.6041,51.2424,264.0469,-0.8750,-88.2500,0.00000000,0.00000000,0.00000000,
2.542102,-0.9826,0.0187,-0.0847,0.2120,-0.2100,1.2266,0.1760,0.3212,-0.0067,74.8768,54.7801,51.3095,264.0469,-0.8750,-88.2500,0.00000000,0.00000000,0.00000000,
2.559979,-0.9826,0.0187,-0.0847,0.2120,-0.2100,1.2266,0.1760,0.3212,-0.0067,74.8768,54.7801,51.3095,273.2344,1.3281,-86.6875,0.00000000,0.00000000,0.00000000,
2.576997,-0.9826,0.0187,-0.0847,0.2120,-0.2100,1.2266,0.0179,0.0553,0.0128,74.8768,54.7801,51.3095,273.2344,1.3281,-86.6875,0.00000000,0.00000000,0.00000000,
2.581212,-0.9208,0.0861,-0.1127,0.2120,-0.2100,1.2266,0.0179,0.0553,0.0128,74.8768,54.7801,51.3095,273.2344,1.3281,-86.6875,0.00000000,0.00000000,0.00000000,
2.584681,-0.9208,0.0861,-0.1127,0.4421,-0.8189,0.3031,0.0179,0.0553,0.0128,74.8768,54.7801,51.3095,273.2344,1.3281,-86.6875,0.00000000,0.00000000,0.00000000,
2.598295,-0.9208,0.0861,-0.1127,0.4421,-0.8189,0.3031,0.0179,0.0553,0.0128,74.8768,54.7801,51.3095,275.8438,-3.3438,-86.3750,0.00000000,0.00000000,0.00000000,
2.623331,-0.9208,0.0861,-0.1127,0.4421,-0.8189,0.3031,0.0179,0.0553,0.0128,74.1222,54.0761,51.3947,275.8438,-3.3438,-86.3750,0.00000000,0.00000000,0.00000000,
2.634609,-0.9208,0.0861,-0.1127,1.3615,-0.2313,-0.3432,0.0179,0.0553,0.0128,74.1222,54.0761,51.3947,275.8438,-3.3438,-86.3750,0.00000000,0.00000000,0.00000000,
2.636760,-0.9208,0.0861,-0.1127,1.3217,-0.3762,-0.4572,0.0179,0.0553,0.0128,74.1222,54.0761,51.3947,275.8438,-3.3438,-86.3750,0.00000000,0.00000000,0.00000000,
2.638375,-0.9208,0.0861,-0.1127,1.3217,-0.3762,-0.4572,0.0179,0.0553,0.0128,74.1222,54.0761,51.3947,275.5938,-173.0625,-82.0156,0.00000000,0.00000000,0.00000000,
2.639799,-1.0712,0.3127,-0.0509,1.3217,-0.3762,-0.4572,0.0179,0.0553,0.0128,74.1222,54.0761,51.3947,275.5938,-173.0625,-82.0156,0.00000000,0.00000000,0.00000000,
2.651611,-1.0712,0.3127,-0.0509,1.3217,-0.3762,-0.4572,-0.3240,-0.2560,0.3398,74.1222,54.0761,51.3947,275.5938,-173.0625,-82.0156,0.00000000,0.00000000,0.00000000,
2.682592,-1.0712,0.3127,-0.0509,1.3217,-0.3762,-0.4572,-0.3240,-0.2560,0.3398,74.1222,54.0761,51.3947,278.8906,-174.5312,-82.2031,0.00000000,0.00000000,0.00000000,
2.685798,-1.0712,0.3127,-0.0509,1.3217,-0.3762,-0.4572,-0.3240,-0.2560,0.3398,74.3055,52.8316,50.2560,278.8906,-174.5312,-82.2031,0.00000000,0.00000000,0.00000000,
2.695059,-1.0712,0.3127,-0.0509,-0.5437,1.7148,0.3827,-0.3240,-0.2560,0.3398,74.3055,52.8316,50.2560,278.8906,-174.5312,-82.2031,0.00000000,0.00000000,0.00000000,
2.698777,-1.0712,0.3127,-0.0509,-0.5437,1.7148,0.3827,-0.0042,-0.2041,0.0494,74.3055,52.8316,50.2560,278.8906,-174.5312,-82.2031,0.00000000,0.00000000,0.00000000,
2.715941,-0.9715,0.0550,-0.0384,-0.5437,1.7148,0.3827,-0.0042,-0.2041,0.0494,74.3055,52.8316,50.2560,278.8906,-174.5312,-82.2031,0.00000000,0.00000000,0.00000000,
2.725049,-0.9715,0.0550,-0.0384,-0.5437,1.7148,0.3827,-0.0042,-0.2041,0.0494,74.3055,52.8316,50.2560,278.9688,-174.0938,-83.6250,0.00000000,0.00000000,0.00000000,
2.742809,-0.9715,0.0550,-0.0384,-0.5437,1.7148,0.3827,-0.0042,-0.2041,0.0494,74.5175,52.9538,50.0611,278.9688,-174.0938,-83.6250,0.00000000,0.00000000,0.00000000,
2.759250,-0.9715,0.0550,-0.0384,0.5283,-0.9166,0.1466,-0.0042,-0.2041,0.0494,74.5175,52.9538,50.0611,278.9688,-174.0938,-83.6250,0.00000000,0.00000000,0.00000000,
2.762764,-0.9715,0.0550,-0.0384,0.5206,-0.8891,0.0905,-0.0042,-0.2041,0.0494,74.5175,52.9538,50.0611,278.9688,-174.0938,-83.6250,0.00000000,0.00000000,0.00000000,
2.765339,-0.9715,0.0550,-0.0384,0.5206,-0.8891,0.0905,-0.0042,-0.2041,0.0494,74.5175,52.9538,50.0611,277.8438,-173.5469,-83.1250,0.00000000,0.00000000,0.00000000,
2.775429,-0.9715,0.0550,-0.0384,0.5206,-0.8891,0.0905,-0.1615,-0.0420,-0.0045,74.5175,52.9538,50.0611,277.8438,-173.5469,-83.1250,0.00000000,0.00000000,0.00000000,
2.779662,-0.9650,0.0331,0.0230,0.5206,-0.8891,0.0905,-0.1615,-0.0420,-0.0045,74.5175,52.9538,50.0611,277.8438,-173.5469,-83.1250,0.00000000,0.00000000,0.00000000,
2.806256,-0.9650,0.0331,0.0230,0.5206,-0.8891,0.0905,-0.1615,-0.0420,-0.0045,74.5175,52.9538,50.0611,278.2812,-173.6250,-82.8594,0.00000000,0.00000000,0.00000000,
2.815476,-0.9650,0.0331,0.0230,0.6766,-1.0972,0.8173,-0.1615,-0.0420,-0.0045,74.5175,52.9538,50.0611,278.2812,-173.6250,-82.8594,0.00000000,0.00000000,0.00000000,
2.825947,-0.9650,0.0331,0.0230,0.6766,-1.0972,0.8173,-0.1615,-0.0420,-0.0045,74.7735,53.2244,49.6411,278.2812,-173.6250,-82.8594,0.00000000,0.00000000,0.00000000,
2.842854,-0.9749,0.0768,0.0369,0.6766,-1.0972,0.8173,-0.1615,-0.0420,-0.0045,74.7735,53.2244,49.6411,278.2812,-173.6250,-82.8594,0.00000000,0.00000000,0.00000000,
2.847340,-0.9749,0.0768,0.0369,0.6766,-1.0972,0.8173,-0.1615,-0.0420,-0.0045,74.7735,53.2244,49.6411,278.8906,-173.6719,-83.0156,0.00000000,0.00000000,0.00000000,
2.869174,-0.9749,0.0768,0.0369,0.6766,-1.0972,0.8173,0.0970,0.0072,-0.0268,74.7735,53.2244,49.6411,278.8906,-173.6719,-83.0156,0.00000000,0.00000000,0.00000000,
2.875450,-0.9749,0.0768,0.0369,0.5878,-0.8082,0.8689,0.0970,0.0072,-0.0268,74.7735,53.2244,49.6411,278.8906,-173.6719,-83.0156,0.00000000,0.00000000,0.00000000,
2.878515,-0.9749,0.0768,0.0369,0.5707,-0.7798,0.9471,0.0970,0.0072,-0.0268,74.7735,53.2244,49.6411,278.8906,-173.6719,-83.0156,0.00000000,0.00000000,0.00000000,
2.880558,-0.9749,0.0768,0.0369,0.5707,-0.7798,0.9471,0.0970,0.0072,-0.0268,73.9077,53.5873,50.4311,278.8906,-173.6719,-83.0156,0.00000000,0.00000000,0.00000000,
2.890668,-0.9749,0.0768,0.0369,0.5707,-0.7798,0.9471,0.0970,0.0072,-0.0268,73.9077,53.5873,50.4311,278.4531,-173.5781,-82.7500,0.00000000,0.00000000,0.00000000,
2.894060,-0.9749,0.0768,0.0369,0.5707,-0.7798,0.9471,0.2724,0.2955,-0.0005,73.9077,53.5873,50.4311,278.4531,-173.5781,-82.7500,0.00000000,0.00000000,0.00000000,
2.901147,-0.9766,0.1532,-0.0824,0.5707,-0.7798,0.9471,0.2724,0.2955,-0.0005,73.9077,53.5873,50.4311,278.4531,-173.5781,-82.7500,0.00000000,0.00000000,0.00000000,
2.930938,-0.9766,0.1532,-0.0824,0.5707,-0.7798,0.9471,0.2724,0.2955,-0.0005,73.9077,53.5873,50.4311,276.8750,-172.7500,-82.2812,0.00000000,0.00000000,0.00000000,
2.935964,-0.9766,0.1532,-0.0824,0.3842,-0.1914,0.3335,0.2724,0.2955,-0.0005,73.9077,53.5873,50.4311,276.8750,-172.7500,-82.2812,0.00000000,0.00000000,0.00000000,
2.960921,-0.9766,0.1532,-0.0824,0.3842,-0.1914,0.3335,0.2724,0.2955,-0.0005,73.7758,54.8125,50.9516,276.8750,-172.7500,-82.2812,0.00000000,0.00000000,0.00000000,
2.978448,-0.9766,0.1532,-0.0824,0.3842,-0.1914,0.3335,0.2724,0.2955,-0.0005,73.7758,54.8125,50.9516,275.6875,-171.9844,-81.7344,0.00000000,0.00000000,0.00000000,
2.981657,-0.9766,0.1532,-0.0824,0.3842,-0.1914,0.3335,0.2335,0.1366,-0.0707,73.7758,54.8125,50.9516,275.6875,-171.9844,-81.7344,0.00000000,0.00000000,0.00000000,
2.984056,-0.9192,0.1091,-0.0766,0.3842,-0.1914,0.3335,0.2335,0.1366,-0.0707,73.7758,54.8125,50.9516,275.6875,-171.9844,-81.7344,0.00000000,0.00000000,0.00000000,
2.992443,-0.9192,0.1091,-0.0766,0.9652,0.2176,-0.0213,0.2335,0.1366,-0.0707,73.7758,54.8125,50.9516,275.6875,-171.9844,-81.7344,0.00000000,0.00000000,0.00000000,
2.995563,-0.9192,0.1091,-0.0766,0.9459,0.2622,0.0450,0.2335,0.1366,-0.0707,73.7758,54.8125,50.9516,275.6875,-171.9844,-81.7344,0.00000000,0.00000000,0.00000000,
3.014215,-0.9192,0.1091,-0.0766,0.9459,0.2622,0.0450,0.2335,0.1366,-0.0707,73.7758,54.8125,50.9516,275.4844,-171.9844,-81.8750,0.00000000,0.00000000,0.00000000,
3.024940,-0.9192,0.1091,-0.0766,0.9459,0.2622,0.0450,0.2335,0.1366,-0.0707,73.5226,55.9342,50.8802,275.4844,-171.9844,-81.8750,0.00000000,0.00000000,0.00000000,
3.045002,-1.0163,-0.0008,-0.0672,0.9459,0.2622,0.0450,0.2335,0.1366,-0.0707,73.5226,55.9342,50.8802,275.4844,-171.9844,-81.8750,0.00000000,0.00000000,0.00000000,
3.053090,-1.0163,-0.0008,-0.0672,0.5152,-0.7422,0.4157,0.2335,0.1366,-0.0707,73.5226,55.9342,50.8802,275.4844,-171.9844,-81.8750,0.00000000,0.00000000,0.00000000,
3.055590,-1.0163,-0.0008,-0.0672,0.5152,-0.7422,0.4157,0.1548,-0.0112,-0.2082,73.5226,55.9342,50.8802,275.4844,-171.9844,-81.8750,0.00000000,0.00000000,0.00000000,
3.057729,-1.0163,-0.0008,-0.0672,0.5152,-0.7422,0.4157,0.1548,-0.0112,-0.2082,73.5226,55.9342,50.8802,275.0781,-171.9531,-81.8438,0.00000000,0.00000000,0.00000000,
3.082620,-1.0163,-0.0008,-0.0672,0.5152,-0.7422,0.4157,0.1548,-0.0112,-0.2082,75.0666,56.2910,51.3981,275.0781,-171.9531,-81.8438,0.00000000,0.00000000,0.00000000,
3.093834,-1.0163,-0.0008,-0.0672,0.5152,-0.7422,0.4157,-0.3164,-0.1819,-0.0999,75.0666,56.2910,51.3981,275.0781,-171.9531,-81.8438,0.00000000,0.00000000,0.00000000,
3.097498,-1.0163,-0.0008,-0.0672,0.5152,-0.7422,0.4157,-0.3164,-0.1819,-0.0999,75.0666,56.2910,51.3981,275.2500,-172.0156,-81.9219,0.00000000,0.00000000,0.00000000,
3.115344,-1.0066,0.0196,-0.1418,0.5152,-0.7422,0.4157,-0.3164,-0.1819,-0.0999,75.0666,56.2910,51.3981,275.2500,-172.0156,-81.9219,0.00000000,0.00000000,0.00000000,
3.119188,-1.0066,0.0196,-0.1418,0.0893,-1.1368,-0.0346,-0.3164,-0.1819,-0.0999,75.0666,56.2910,51.3981,275.2500,-172.0156,-81.9219,0.00000000,0.00000000,0.00000000,
3.121471,-1.0066,0.0196,-0.1418,0.0978,-1.0925,-0.1311,-0.3164,-0.1819,-0.0999,75.0666,56.2910,51.3981,275.2500,-172.0156,-81.9219,0.00000000,0.00000000,0.00000000,
3.140208,-1.0066,0.0196,-0.1418,0.0978,-1.0925,-0.1311,-0.3164,-0.1819,-0.0999,75.0666,56.2910,51.3981,275.6719,-172.0625,-81.8906,0.00000000,0.00000000,0.00000000,
3.144082,-1.0066,0.0196,-0.1418,0.0978,-1.0925,-0.1311,-0.3164,-0.1819,-0.0999,74.1892,55.4457,50.0069,275.6719,-172.0625,-81.8906,0.00000000,0.00000000,0.00000000,
3.174897,-1.0066,0.0196,-0.1418,0.2004,-0.7728,-0.7385,-0.3164,-0.1819,-0.0999,74.1892,55.4457,50.0069,275.6719,-172.0625,-81.8906,0.00000000,0.00000000,0.00000000,
3.179159,-0.9609,0.1024,-0.0982,0.2004,-0.7728,-0.7385,-0.3164,-0.1819,-0.0999,74.1892,55.4457,50.0069,275.6719,-172.0625,-81.8906,0.00000000,0.00000000,0.00000000,
3.181677,-0.9609,0.1024,-0.0982,0.2004,-0.7728,-0.7385,-0.8527,-0.3441,-0.0470,74.1892,55.4457,50.0069,275.6719,-172.0625,-81.8906,0.00000000,0.00000000,0.00000000,
3.184049,-0.9609,0.1024,-0.0982,0.2004,-0.7728,-0.7385,-0.8527,-0.3441,-0.0470,74.1892,55.4457,50.0069,276.2188,-172.0781,-81.7031,0.00000000,0.00000000,0.00000000,
3.223950,-0.9609,0.1024,-0.0982,0.2004,-0.7728,-0.7385,-0.8527,-0.3441,-0.0470,75.2325,53.1852,49.5889,276.2188,-172.0781,-81.7031,0.00000000,0.00000000,0.00000000,
3.227057,-0.9609,0.1024,-0.0982,0.2004,-0.7728,-0.7385,-0.8527,-0.3441,-0.0470,75.2325,53.1852,49.5889,276.8906,-172.1875,-81.6562,0.00000000,0.00000000,0.00000000,
3.236937,-0.9609,0.1024,-0.0982,0.6441,0.1326,-0.4232,-0.8527,-0.3441,-0.0470,75.2325,53.1852,49.5889,276.8906,-172.1875,-81.6562,0.00000000,0.00000000,0.00000000,
3.240097,-1.0098,0.2649,-0.0149,0.6441,0.1326,-0.4232,-0.8527,-0.3441,-0.0470,75.2325,53.1852,49.5889,276.8906,-172.1875,-81.6562,0.00000000,0.00000000,0.00000000,
3.242583,-1.0098,0.2649,-0.0149,0.6361,0.1183,-0.5634,-0.8527,-0.3441,-0.0470,75.2325,53.1852,49.5889,276.8906,-172.1875,-81.6562,0.00000000,0.00000000,0.00000000,
3.256045,-1.0098,0.2649,-0.0149,0.6361,0.1183,-0.5634,-1.0717,-0.2473,-0.0184,75.2325,53.1852,49.5889,276.8906,-172.1875,-81.6562,0.00000000,0.00000000,0.00000000,
3.264343,-1.0098,0.2649,-0.0149,0.6361,0.1183,-0.5634,-1.0717,-0.2473,-0.0184,75.2325,53.1852,49.5889,277.6406,-172.4531,-81.7656,0.00000000,0.00000000,0.00000000,
3.282831,-1.0098,0.2649,-0.0149,0.6361,0.1183,-0.5634,-1.0717,-0.2473,-0.0184,75.3120,50.4735,48.0118,277.6406,-172.4531,-81.7656,0.00000000,0.00000000,0.00000000,
3.296407,-1.0098,0.2649,-0.0149,0.1180,1.5677,0.0710,-1.0717,-0.2473,-0.0184,75.3120,50.4735,48.0118,277.6406,-172.4531,-81.7656,0.00000000,0.00000000,0.00000000,
3.300386,-1.0098,0.2649,-0.0149,0.1180,1.5677,0.0710,-0.8672,-0.1830,-0.0671,75.3120,50.4735,48.0118,277.6406,-172.4531,-81.7656,0.00000000,0.00000000,0.00000000,
3.307523,-1.0065,0.2805,0.0359,0.1180,1.5677,0.0710,-0.8672,-0.1830,-0.0671,75.3120,50.4735,48.0118,277.6406,-172.4531,-81.7656,0.00000000,0.00000000,0.00000000,
3.310989,-1.0065,0.2805,0.0359,0.1180,1.5677,0.0710,-0.8672,-0.1830,-0.0671,75.3120,50.4735,48.0118,278.5781,-172.9688,-82.1875,0.00000000,0.00000000,0.00000000,
3.341721,-1.0065,0.2805,0.0359,0.1180,1.5677,0.0710,-0.8672,-0.1830,-0.0671,76.3009,49.6409,47.1528,278.5781,-172.9688,-82.1875,0.00000000,0.00000000,0.00000000,
3.348233,-1.0065,0.2805,0.0359,0.1180,1.5677,0.0710,-0.8672,-0.1830,-0.0671,76.3009,49.6409,47.1528,278.9688,-173.3750,-82.6562,0.00000000,0.00000000,0.00000000,
3.360336,-1.0065,0.2805,0.0359,0.1789,1.6889,0.3720,-0.8672,-0.1830,-0.0671,76.3009,49.6409,47.1528,278.9688,-173.3750,-82.6562,0.00000000,0.00000000,0.00000000,
3.364583,-1.0065,0.2805,0.0359,0.1792,1.6890,0.2498,-0.8672,-0.1830,-0.0671,76.3009,49.6409,47.1528,278.9688,-173.3750,-82.6562,0.00000000,0.00000000,0.00000000,
3.375071,-1.0014,0.2181,0.0405,0.1792,1.6890,0.2498,-0.8672,-0.1830,-0.0671,76.3009,49.6409,47.1528,278.9688,-173.3750,-82.6562,0.00000000,0.00000000,0.00000000,
3.378730,-1.0014,0.2181,0.0405,0.1792,1.6890,0.2498,-0.2311,-0.1405,-0.0880,76.3009,49.6409,47.1528,278.9688,-173.3750,-82.6562,0.00000000,0.00000000,0.00000000,
3.395572,-1.0014,0.2181,0.0405,0.1792,1.6890,0.2498,-0.2311,-0.1405,-0.0880,76.3009,49.6409,47.1528,278.3125,-173.5312,-83.0312,0.00000000,0.00000000,0.00000000,
3.416219,-1.0014,0.2181,0.0405,0.2614,1.0547,0.4842,-0.2311,-0.1405,-0.0880,76.3009,49.6409,47.1528,278.3125,-173.5312,-83.0312,0.00000000,0.00000000,0.00000000,
3.424448,-1.0014,0.2181,0.0405,0.2614,1.0547,0.4842,-0.2311,-0.1405,-0.0880,75.4446,50.4769,48.3986,278.3125,-173.5312,-83.0312,0.00000000,0.00000000,0.00000000,
3.430571,-1.0014,0.2181,0.0405,0.2614,1.0547,0.4842,-0.2311,-0.1405,-0.0880,75.4446,50.4769,48.3986,276.8125,-173.6094,-83.3906,0.00000000,0.00000000,0.00000000,
3.434694,-0.9871,0.2138,-0.0556,0.2614,1.0547,0.4842,-0.2311,-0.1405,-0.0880,75.4446,50.4769,48.3986,276.8125,-173.6094,-83.3906,0.00000000,0.00000000,0.00000000,
3.455580,-0.9871,0.2138,-0.0556,0.2614,1.0547,0.4842,0.0586,0.2086,-0.1375,75.4446,50.4769,48.3986,276.8125,-173.6094,-83.3906,0.00000000,0.00000000,0.00000000,
3.475176,-0.9871,0.2138,-0.0556,0.2614,1.0547,0.4842,0.0586,0.2086,-0.1375,75.4446,50.4769,48.3986,274.7500,-173.6406,-83.6250,0.00000000,0.00000000,0.00000000,
3.480170,-0.9871,0.2138,-0.0556,0.2426,1.1930,-0.5585,0.0586,0.2086,-0.1375,75.4446,50.4769,48.3986,274.7500,-173.6406,-83.6250,0.00000000,0.00000000,0.00000000,
3.483170,-0.9871,0.2138,-0.0556,0.2458,1.2510,-0.4921,0.0586,0.2086,-0.1375,75.4446,50.4769,48.3986,274.7500,-173.6406,-83.6250,0.00000000,0.00000000,0.00000000,
3.486029,-0.9871,0.2138,-0.0556,0.2458,1.2510,-0.4921,0.0586,0.2086,-0.1375,75.3183,50.0782,49.6023,274.7500,-173.6406,-83.6250,0.00000000,0.00000000,0.00000000,
3.495758,-0.9871,0.2138,-0.0556,0.2458,1.2510,-0.4921,0.0177,0.2028,-0.2944,75.3183,50.0782,49.6023,274.7500,-173.6406,-83.6250,0.00000000,0.00000000,0.00000000,
3.507862,-0.9731,0.1566,0.0429,0.2458,1.2510,-0.4921,0.0177,0.2028,-0.2944,75.3183,50.0782,49.6023,274.7500,-173.6406,-83.6250,0.00000000,0.00000000,0.00000000,
3.513899,-0.9731,0.1566,0.0429,0.2458,1.2510,-0.4921,0.0177,0.2028,-0.2944,75.3183,50.0782,49.6023,272.3750,-6.3281,-83.6562,0.00000000,0.00000000,0.00000000,
3.537078,-0.9731,0.1566,0.0429,0.4681,0.8569,0.4909,0.0177,0.2028,-0.2944,75.3183,50.0782,49.6023,272.3750,-6.3281,-83.6562,0.00000000,0.00000000,0.00000000,
3.544756,-0.9731,0.1566,0.0429,0.4681,0.8569,0.4909,0.0177,0.2028,-0.2944,74.6746,51.6036,49.7912,272.3750,-6.3281,-83.6562,0.00000000,0.00000000,0.00000000,
3.557737,-0.9731,0.1566,0.0429,0.4681,0.8569,0.4909,0.0177,0.2028,-0.2944,74.6746,51.6036,49.7912,270.1406,-6.1719,-83.7500,0.00000000,0.00000000,0.00000000,
3.576164,-0.9731,0.1566,0.0429,0.4681,0.8569,0.4909,0.2515,0.0838,-0.1714,74.6746,51.6036,49.7912,270.1406,-6.1719,-83.7500,0.00000000,0.00000000,0.00000000,
3.580261,-0.9654,0.1761,0.0579,0.4681,0.8569,0.4909,0.2515,0.0838,-0.1714,74.6746,51.6036,49.7912,270.1406,-6.1719,-83.7500,0.00000000,0.00000000,0.00000000,
3.597287,-0.9654,0.1761,0.0579,0.4681,0.8569,0.4909,0.2515,0.0838,-0.1714,74.6746,51.6036,49.7912,268.5000,-5.9688,-83.8281,0.00000000,0.00000000,0.00000000,
3.600802,-0.9654,0.1761,0.0579,0.6474,0.3260,0.4781,0.2515,0.0838,-0.1714,74.6746,51.6036,49.7912,268.5000,-5.9688,-83.8281,0.00000000,0.00000000,0.00000000,
3.602825,-0.9654,0.1761,0.0579,0.6392,0.3517,0.4454,0.2515,0.0838,-0.1714,74.6746,51.6036,49.7912,268.5000,-5.9688,-83.8281,0.00000000,0.00000000,0.00000000,
3.621771,-0.9654,0.1761,0.0579,0.6392,0.3517,0.4454,0.2515,0.0838,-0.1714,76.0576,53.3780,50.8570,268.5000,-5.9688,-83.8281,0.00000000,0.00000000,0.00000000,
3.643560,-0.9663,0.2484,0.0723,0.6392,0.3517,0.4454,0.2515,0.0838,-0.1714,76.0576,53.3780,50.8570,268.5000,-5.9688,-83.8281,0.00000000,0.00000000,0.00000000,
3.649571,-0.9663,0.2484,0.0723,0.6392,0.3517,0.4454,0.2515,0.0838,-0.1714,76.0576,53.3780,50.8570,267.8125,-5.7500,-83.8281,0.00000000,0.00000000,0.00000000,
3.660162,-0.9663,0.2484,0.0723,0.4677,1.9866,1.0166,0.2515,0.0838,-0.1714,76.0576,53.3780,50.8570,267.8125,-5.7500,-83.8281,0.00000000,0.00000000,0.00000000,
3.663927,-0.9663,0.2484,0.0723,0.4677,1.9866,1.0166,0.5083,-0.0057,-0.1814,76.0576,53.3780,50.8570,267.8125,-5.7500,-83.8281,0.00000000,0.00000000,0.00000000,
3.680602,-0.9663,0.2484,0.0723,0.4677,1.9866,1.0166,0.5083,-0.0057,-0.1814,76.0576,53.3780,50.8570,267.9531,-5.5312,-84.0156,0.00000000,0.00000000,0.00000000,
3.684237,-0.9663,0.2484,0.0723,0.4677,1.9866,1.0166,0.5083,-0.0057,-0.1814,74.2438,54.3556,50.3338,267.9531,-5.5312,-84.0156,0.00000000,0.00000000,0.00000000,
3.698054,-0.9663,0.2484,0.0723,0.4677,1.9866,1.0166,0.4481,-0.1028,-0.1175,74.2438,54.3556,50.3338,267.9531,-5.5312,-84.0156,0.00000000,0.00000000,0.00000000,
3.710180,-0.9949,0.1846,0.0510,0.4677,1.9866,1.0166,0.4481,-0.1028,-0.1175,74.2438,54.3556,50.3338,267.9531,-5.5312,-84.0156,0.00000000,0.00000000,0.00000000,
3.718354,-0.9949,0.1846,0.0510,0.4905,1.4406,0.9734,0.4481,-0.1028,-0.1175,74.2438,54.3556,50.3338,267.9531,-5.5312,-84.0156,0.00000000,0.00000000,0.00000000,
3.722055,-0.9949,0.1846,0.0510,0.4859,1.4624,0.9211,0.4481,-0.1028,-0.1175,74.2438,54.3556,50.3338,267.9531,-5.5312,-84.0156,0.00000000,0.00000000,0.00000000,
3.724870,-0.9949,0.1846,0.0510,0.4859,1.4624,0.9211,0.4481,-0.1028,-0.1175,74.2438,54.3556,50.3338,268.3750,-5.2500,-84.4688,0.00000000,0.00000000,0.00000000,
3.742108,-0.9949,0.1846,0.0510,0.4859,1.4624,0.9211,0.4481,-0.1028,-0.1175,74.1315,54.7436,50.4993,268.3750,-5.2500,-84.4688,0.00000000,0.00000000,0.00000000,
3.764667,-0.9949,0.1846,0.0510,0.4859,1.4624,0.9211,0.4481,-0.1028,-0.1175,74.1315,54.7436,50.4993,268.7188,-4.7812,-85.0156,0.00000000,0.00000000,0.00000000,
3.778477,-0.9949,0.1846,0.0510,0.1388,1.0386,0.5690,0.4481,-0.1028,-0.1175,74.1315,54.7436,50.4993,268.7188,-4.7812,-85.0156,0.00000000,0.00000000,0.00000000,
3.782558,-1.1442,0.1244,0.0246,0.1388,1.0386,0.5690,0.4481,-0.1028,-0.1175,74.1315,54.7436,50.4993,268.7188,-4.7812,-85.0156,0.00000000,0.00000000,0.00000000,
3.785035,-1.1442,0.1244,0.0246,0.1388,1.0386,0.5690,0.0695,-0.0391,-0.0769,74.1315,54.7436,50.4993,268.7188,-4.7812,-85.0156,0.00000000,0.00000000,0.00000000,
3.805630,-1.1442,0.1244,0.0246,0.1388,1.0386,0.5690,0.0695,-0.0391,-0.0769,74.1315,54.7436,50.4993,269.5000,-4.0312,-85.8594,0.00000000,0.00000000,0.00000000,
3.824643,-1.1442,0.1244,0.0246,0.1388,1.0386,0.5690,0.0695,-0.0391,-0.0769,74.6010,54.7285,50.4261,269.5000,-4.0312,-85.8594,0.00000000,0.00000000,0.00000000,
3.845649,-1.0047,-0.0334,0.0685,0.1388,1.0386,0.5690,0.0695,-0.0391,-0.0769,74.6010,54.7285,50.4261,269.5000,-4.0312,-85.8594,0.00000000,0.00000000,0.00000000,
3.853286,-1.0047,-0.0334,0.0685,-1.3099,0.4469,0.3882,0.0695,-0.0391,-0.0769,74.6010,54.7285,50.4261,269.5000,-4.0312,-85.8594,0.00000000,0.00000000,0.00000000,
3.857620,-1.0047,-0.0334,0.0685,-1.2848,0.4971,0.3799,0.0695,-0.0391,-0.0769,74.6010,54.7285,50.4261,269.5000,-4.0312,-85.8594,0.00000000,0.00000000,0.00000000,
3.860684,-1.0047,-0.0334,0.0685,-1.2848,0.4971,0.3799,0.0695,-0.0391,-0.0769,74.6010,54.7285,50.4261,270.5625,-3.4688,-86.5156,0.00000000,0.00000000,0.00000000,
3.863352,-1.0047,-0.0334,0.0685,-1.2848,0.4971,0.3799,-0.4321,0.0242,-0.1504,74.6010,54.7285,50.4261,270.5625,-3.4688,-86.5156,0.00000000,0.00000000,0.00000000,
3.882954,-1.0047,-0.0334,0.0685,-1.2848,0.4971,0.3799,-0.4321,0.0242,-0.1504,74.7113,55.1186,50.4879,270.5625,-3.4688,-86.5156,0.00000000,0.00000000,0.00000000,
3.891099,-1.0047,-0.0334,0.0685,-1.2848,0.4971,0.3799,-0.4321,0.0242,-0.1504,74.7113,55.1186,50.4879,271.3750,-3.3125,-86.6406,0.00000000,0.00000000,0.00000000,
3.898670,-1.0047,-0.0334,0.0685,0.3100,-0.9324,0.7474,-0.4321,0.0242,-0.1504,74.7113,55.1186,50.4879,271.3750,-3.3125,-86.6406,0.00000000,0.00000000,0.00000000,
3.901946,-1.0047,-0.0334,0.0685,0.3100,-0.9324,0.7474,-0.1414,0.2135,-0.2080,74.7113,55.1186,50.4879,271.3750,-3.3125,-86.6406,0.00000000,0.00000000,0.00000000,
3.911555,-0.9405,-0.0995,-0.0694,0.3100,-0.9324,0.7474,-0.1414,0.2135,-0.2080,74.7113,55.1186,50.4879,271.3750,-3.3125,-86.6406,0.00000000,0.00000000,0.00000000,
3.930180,-0.9405,-0.0995,-0.0694,0.3100,-0.9324,0.7474,-0.1414,0.2135,-0.2080,74.7113,55.1186,50.4879,272.9219,-2.9062,-87.0469,0.00000000,0.00000000,0.00000000,
3.941799,-0.9405,-0.0995,-0.0694,0.3100,-0.9324,0.7474,-0.1414,0.2135,-0.2080,73.6030,55.8634,51.4003,272.9219,-2.9062,-87.0469,0.00000000,0.00000000,0.00000000,
3.960629,-0.9405,-0.0995,-0.0694,0.8475,-1.3724,-0.4509,-0.1414,0.2135,-0.2080,73.6030,55.8634,51.4003,272.9219,-2.9062,-87.0469,0.00000000,0.00000000,0.00000000,
3.967048,-0.9405,-0.0995,-0.0694,0.8332,-1.2631,-0.3443,-0.1414,0.2135,-0.2080,73.6030,55.8634,51.4003,272.9219,-2.9062,-87.0469,0.00000000,0.00000000,0.00000000,
3.970033,-0.9782,0.0304,-0.1023,0.8332,-1.2631,-0.3443,-0.1414,0.2135,-0.2080,73.6030,55.8634,51.4003,272.9219,-2.9062,-87.0469,0.00000000,0.00000000,0.00000000,
3.972805,-0.9782,0.0304,-0.1023,0.8332,-1.2631,-0.3443,-0.1414,0.2135,-0.2080,73.6030,55.8634,51.4003,274.4844,-2.5625,-87.3750,0.00000000,0.00000000,0.00000000,
3.979369,-0.9782,0.0304,-0.1023,0.8332,-1.2631,-0.3443,-0.0023,0.2339,-0.2182,73.6030,55.8634,51.4003,274.4844,-2.5625,-87.3750,0.00000000,0.00000000,0.00000000,
4.014378,-0.9782,0.0304,-0.1023,0.8332,-1.2631,-0.3443,-0.0023,0.2339,-0.2182,73.6030,55.8634,51.4003,275.7188,-2.3281,-87.5312,0.00000000,0.00000000,0.00000000,
4.019219,-0.9782,0.0304,-0.1023,0.5686,0.2199,-0.7231,-0.0023,0.2339,-0.2182,73.6030,55.8634,51.4003,275.7188,-2.3281,-87.5312,0.00000000,0.00000000,0.00000000,
4.022710,-0.9782,0.0304,-0.1023,0.5686,0.2199,-0.7231,-0.0023,0.2339,-0.2182,72.2603,56.4798,52.5732,275.7188,-2.3281,-87.5312,0.00000000,0.00000000,0.00000000,
4.040521,-0.9748,-0.0344,-0.0393,0.5686,0.2199,-0.7231,-0.0023,0.2339,-0.2182,72.2603,56.4798,52.5732,275.7188,-2.3281,-87.5312,0.00000000,0.00000000,0.00000000,
4.077324,-0.9748,-0.0344,-0.0393,0.5686,0.2199,-0.7231,-0.0023,0.2339,-0.2182,72.2603,56.4798,52.5732,276.3125,-2.1562,-87.6719,0.00000000,0.00000000,0.00000000,
4.080940,-0.9748,-0.0344,-0.0393,0.5686,0.2199,-0.7231,-0.2157,0.5013,-0.2378,72.2603,56.4798,52.5732,276.3125,-2.1562,-87.6719,0.00000000,0.00000000,0.00000000,
4.083464,-0.9748,-0.0344,-0.0393,0.3155,-0.3584,0.2753,-0.2157,0.5013,-0.2378,72.2603,56.4798,52.5732,276.3125,-2.1562,-87.6719,0.00000000,0.00000000,0.00000000,
4.085719,-0.9748,-0.0344,-0.0393,0.2895,-0.2704,0.5427,-0.2157,0.5013,-0.2378,72.2603,56.4798,52.5732,276.3125,-2.1562,-87.6719,0.00000000,0.00000000,0.00000000,
4.087920,-0.9748,-0.0344,-0.0393,0.2895,-0.2704,0.5427,-0.2157,0.5013,-0.2378,71.5498,57.1694,54.0312,276.3125,-2.1562,-87.6719,0.00000000,0.00000000,0.00000000,
4.097585,-0.9748,-0.0344,-0.0393,0.2895,-0.2704,0.5427,-0.2157,0.5013,-0.2378,71.5498,57.1694,54.0312,276.2812,-1.9844,-87.7969,0.00000000,0.00000000,0.00000000,
4.100797,-0.9748,-0.0344,-0.0393,0.2895,-0.2704,0.5427,0.3941,0.6529,-0.1788,71.5498,57.1694,54.0312,276.2812,-1.9844,-87.7969,0.00000000,0.00000000,0.00000000,
4.111939,-0.9843,-0.0365,-0.0805,0.2895,-0.2704,0.5427,0.3941,0.6529,-0.1788,71.5498,57.1694,54.0312,276.2812,-1.9844,-87.7969,0.00000000,0.00000000,0.00000000,
4.138330,-0.9843,-0.0365,-0.0805,0.2895,-0.2704,0.5427,0.3941,0.6529,-0.1788,71.5498,57.1694,54.0312,275.6094,-1.6250,-88.1250,0.00000000,0.00000000,0.00000000,
4.141302,-0.9843,-0.0365,-0.0805,0.4359,-0.2189,0.5257,0.3941,0.6529,-0.1788,71.5498,57.1694,54.0312,275.6094,-1.6250,-88.1250,0.00000000,0.00000000,0.00000000,
4.142853,-0.9843,-0.0365,-0.0805,0.4359,-0.2189,0.5257,0.3941,0.6529,-0.1788,70.3571,59.0137,55.7491,275.6094,-1.6250,-88.1250,0.00000000,0.00000000,0.00000000,
4.172415,-0.9288,-0.0431,-0.1935,0.4359,-0.2189,0.5257,0.3941,0.6529,-0.1788,70.3571,59.0137,55.7491,275.6094,-1.6250,-88.1250,0.00000000,0.00000000,0.00000000,
4.179066,-0.9288,-0.0431,-0.1935,0.4359,-0.2189,0.5257,1.0403,0.4747,-0.0931,70.3571,59.0137,55.7491,275.6094,-1.6250,-88.1250,0.00000000,0.00000000,0.00000000,
4.181257,-0.9288,-0.0431,-0.1935,0.4359,-0.2189,0.5257,1.0403,0.4747,-0.0931,70.3571,59.0137,55.7491,275.6562,-0.7031,-89.2500,0.00000000,0.00000000,0.00000000,
4.199056,-0.9288,-0.0431,-0.1935,0.4844,-0.2304,-0.2385,1.0403,0.4747,-0.0931,70.3571,59.0137,55.7491,275.6562,-0.7031,-89.2500,0.00000000,0.00000000,0.00000000,
4.201402,-0.9288,-0.0431,-0.1935,0.4582,-0.1558,-0.1218,1.0403,0.4747,-0.0931,70.3571,59.0137,55.7491,275.6562,-0.7031,-89.2500,0.00000000,0.00000000,0.00000000,
4.218734,-0.9288,-0.0431,-0.1935,0.4582,-0.1558,-0.1218,1.0097,0.0639,0.0539,70.3571,59.0137,55.7491,275.6562,-0.7031,-89.2500,0.00000000,0.00000000,0.00000000,
4.221634,-0.9288,-0.0431,-0.1935,0.4582,-0.1558,-0.1218,1.0097,0.0639,0.0539,69.2258,63.1940,55.5126,275.6562,-0.7031,-89.2500,0.00000000,0.00000000,0.00000000,
4.223310,-0.9288,-0.0431,-0.1935,0.4582,-0.1558,-0.1218,1.0097,0.0639,0.0539,69.2258,63.1940,55.5126,276.3125,-179.8281,-89.5938,0.00000000,0.00000000,0.00000000,
4.247065,-0.9770,-0.0297,-0.1622,0.4582,-0.1558,-0.1218,1.0097,0.0639,0.0539,69.2258,63.1940,55.5126,276.3125,-179.8281,-89.5938,0.00000000,0.00000000,0.00000000,
4.260318,-0.9770,-0.0297,-0.1622,0.7227,0.0902,-0.2818,1.0097,0.0639,0.0539,69.2258,63.1940,55.5126,276.3125,-179.8281,-89.5938,0.00000000,0.00000000,0.00000000,
4.262927,-0.9770,-0.0297,-0.1622,0.7227,0.0902,-0.2818,1.0097,0.0639,0.0539,69.2258,63.1940,55.5126,276.5938,179.6562,-89.0625,0.00000000,0.00000000,0.00000000,
4.282356,-0.9770,-0.0297,-0.1622,0.7227,0.0902,-0.2818,1.0097,0.0639,0.0539,68.2249,65.0725,55.5355,276.5938,179.6562,-89.0625,0.00000000,0.00000000,0.00000000,
4.300799,-0.9770,-0.0297,-0.1622,0.7227,0.0902,-0.2818,1.1109,0.0938,0.1173,68.2249,65.0725,55.5355,276.5938,179.6562,-89.0625,0.00000000,0.00000000,0.00000000,
4.307842,-0.9770,-0.0297,-0.1622,0.7227,0.0902,-0.2818,1.1109,0.0938,0.1173,68.2249,65.0725,55.5355,276.6406,179.1094,-87.7812,0.00000000,0.00000000,0.00000000,
4.313827,-1.0048,-0.0322,-0.1743,0.7227,0.0902,-0.2818,1.1109,0.0938,0.1173,68.2249,65.0725,55.5355,276.6406,179.1094,-87.7812,0.00000000,0.00000000,0.00000000,
4.323507,-1.0048,-0.0322,-0.1743,0.0786,-0.0144,-0.0702,1.1109,0.0938,0.1173,68.2249,65.0725,55.5355,276.6406,179.1094,-87.7812,0.00000000,0.00000000,0.00000000,
4.326760,-1.0048,-0.0322,-0.1743,0.0737,-0.0003,-0.0493,1.1109,0.0938,0.1173,68.2249,65.0725,55.5355,276.6406,179.1094,-87.7812,0.00000000,0.00000000,0.00000000,
4.341759,-1.0048,-0.0322,-0.1743,0.0737,-0.0003,-0.0493,1.1109,0.0938,0.1173,68.3992,69.1547,57.1176,276.6406,179.1094,-87.7812,0.00000000,0.00000000,0.00000000,
4.347567,-1.0048,-0.0322,-0.1743,0.0737,-0.0003,-0.0493,1.1109,0.0938,0.1173,68.3992,69.1547,57.1176,277.1562,178.6406,-86.1406,0.00000000,0.00000000,0.00000000,
4.373824,-0.9845,-0.0265,-0.1836,0.0737,-0.0003,-0.0493,1.1109,0.0938,0.1173,68.3992,69.1547,57.1176,277.1562,178.6406,-86.1406,0.00000000,0.00000000,0.00000000,
4.380984,-0.9845,-0.0265,-0.1836,0.0737,-0.0003,-0.0493,1.1688,0.0294,0.1974,68.3992,69.1547,57.1176,277.1562,178.6406,-86.1406,0.00000000,0.00000000,0.00000000,
4.385285,-0.9845,-0.0265,-0.1836,-0.0134,0.1607,-0.2286,1.1688,0.0294,0.1974,68.3992,69.1547,57.1176,277.1562,178.6406,-86.1406,0.00000000,0.00000000,0.00000000,
4.390651,-0.9845,-0.0265,-0.1836,-0.0134,0.1607,-0.2286,1.1688,0.0294,0.1974,68.3992,69.1547,57.1176,279.0000,178.1562,-84.6094,0.00000000,0.00000000,0.00000000,
4.424256,-0.9845,-0.0265,-0.1836,-0.0134,0.1607,-0.2286,1.1884,-0.0066,0.2344,68.3992,69.1547,57.1176,279.0000,178.1562,-84.6094,0.00000000,0.00000000,0.00000000,
4.432040,-0.9845,-0.0265,-0.1836,-0.0134,0.1607,-0.2286,1.1884,-0.0066,0.2344,67.6076,70.4984,56.6758,279.0000,178.1562,-84.6094,0.00000000,0.00000000,0.00000000,
4.435828,-0.9845,-0.0265,-0.1836,-0.0134,0.1607,-0.2286,1.1884,-0.0066,0.2344,67.6076,70.4984,56.6758,281.8906,177.6250,-83.3125,0.00000000,0.00000000,0.00000000,
4.443089,-0.9301,0.0082,-0.1388,-0.0134,0.1607,-0.2286,1.1884,-0.0066,0.2344,67.6076,70.4984,56.6758,281.8906,177.6250,-83.3125,0.00000000,0.00000000,0.00000000,
4.447360,-0.9301,0.0082,-0.1388,0.3732,0.0776,-0.1988,1.1884,-0.0066,0.2344,67.6076,70.4984,56.6758,281.8906,177.6250,-83.3125,0.00000000,0.00000000,0.00000000,
4.450340,-0.9301,0.0082,-0.1388,0.3708,0.0555,-0.2149,1.1884,-0.0066,0.2344,67.6076,70.4984,56.6758,281.8906,177.6250,-83.3125,0.00000000,0.00000000,0.00000000,
4.473055,-0.9301,0.0082,-0.1388,0.3708,0.0555,-0.2149,1.1884,-0.0066,0.2344,67.6076,70.4984,56.6758,284.8125,177.2812,-82.6094,0.00000000,0.00000000,0.00000000,
4.482235,-0.9301,0.0082,-0.1388,0.3708,0.0555,-0.2149,1.1884,-0.0066,0.2344,66.6002,73.2492,55.1553,284.8125,177.2812,-82.6094,0.00000000,0.00000000,0.00000000,
4.504263,-0.9301,0.0082,-0.1388,0.7271,0.6495,0.1888,1.1884,-0.0066,0.2344,66.6002,73.2492,55.1553,284.8125,177.2812,-82.6094,0.00000000,0.00000000,0.00000000,
4.511882,-0.9301,0.0082,-0.1388,0.7271,0.6495,0.1888,1.8007,0.2016,0.2634,66.6002,73.2492,55.1553,284.8125,177.2812,-82.6094,0.00000000,0.00000000,0.00000000,
4.515999,-1.0279,0.1805,-0.2289,0.7271,0.6495,0.1888,1.8007,0.2016,0.2634,66.6002,73.2492,55.1553,284.8125,177.2812,-82.6094,0.00000000,0.00000000,0.00000000,
4.519818,-1.0279,0.1805,-0.2289,0.7271,0.6495,0.1888,1.8007,0.2016,0.2634,66.6002,73.2492,55.1553,287.3281,177.1250,-82.5156,0.00000000,0.00000000,0.00000000,
4.547147,-1.0279,0.1805,-0.2289,0.7271,0.6495,0.1888,1.8007,0.2016,0.2634,66.6188,78.2296,54.0158,287.3281,177.1250,-82.5156,0.00000000,0.00000000,0.00000000,
4.560007,-1.0279,0.1805,-0.2289,0.7271,0.6495,0.1888,1.8007,0.2016,0.2634,66.6188,78.2296,54.0158,289.8750,176.9844,-82.3750,0.00000000,0.00000000,0.00000000,
4.565781,-1.0279,0.1805,-0.2289,-0.3061,2.1424,-0.7393,1.8007,0.2016,0.2634,66.6188,78.2296,54.0158,289.8750,176.9844,-82.3750,0.00000000,0.00000000,0.00000000,
4.569943,-1.0279,0.1805,-0.2289,-0.3079,2.0692,-0.6785,1.8007,0.2016,0.2634,66.6188,78.2296,54.0158,289.8750,176.9844,-82.3750,0.00000000,0.00000000,0.00000000,
4.578416,-1.0538,0.0626,-0.1809,-0.3079,2.0692,-0.6785,1.8007,0.2016,0.2634,66.6188,78.2296,54.0158,289.8750,176.9844,-82.3750,0.00000000,0.00000000,0.00000000,
4.583214,-1.0538,0.0626,-0.1809,-0.3079,2.0692,-0.6785,2.0337,0.1226,0.5391,66.6188,78.2296,54.0158,289.8750,176.9844,-82.3750,0.00000000,0.00000000,0.00000000,
4.598098,-1.0538,0.0626,-0.1809,-0.3079,2.0692,-0.6785,2.0337,0.1226,0.5391,66.6188,78.2296,54.0158,292.5781,176.9844,-82.3125,0.00000000,0.00000000,0.00000000,
4.622115,-1.0538,0.0626,-0.1809,-0.3079,2.0692,-0.6785,2.0337,0.1226,0.5391,67.5801,82.1813,51.3493,292.5781,176.9844,-82.3125,0.00000000,0.00000000,0.00000000,
4.625724,-1.0538,0.0626,-0.1809,-0.3079,2.0692,-0.6785,1.3871,-0.0592,1.0600,67.5801,82.1813,51.3493,292.5781,176.9844,-82.3125,0.00000000,0.00000000,0.00000000,
4.627815,-1.0538,0.0626,-0.1809,-0.5216,0.8005,-0.2698,1.3871,-0.0592,1.0600,67.5801,82.1813,51.3493,292.5781,176.9844,-82.3125,0.00000000,0.00000000,0.00000000,
4.640495,-1.0538,0.0626,-0.1809,-0.5216,0.8005,-0.2698,1.3871,-0.0592,1.0600,67.5801,82.1813,51.3493,295.2188,177.0781,-82.3438,0.00000000,0.00000000,0.00000000,
4.645435,-1.1086,-0.0250,-0.0650,-0.5216,0.8005,-0.2698,1.3871,-0.0592,1.0600,67.5801,82.1813,51.3493,295.2188,177.0781,-82.3438,0.00000000,0.00000000,0.00000000,
4.681036,-1.1086,-0.0250,-0.0650,-0.5216,0.8005,-0.2698,1.3871,-0.0592,1.0600,67.5801,82.1813,51.3493,297.7188,177.2656,-82.6094,0.00000000,0.00000000,0.00000000,
4.687848,-1.1086,-0.0250,-0.0650,-0.5216,0.8005,-0.2698,1.3871,-0.0592,1.0600,69.4919,83.5187,48.0337,297.7188,177.2656,-82.6094,0.00000000,0.00000000,0.00000000,
4.691448,-1.1086,-0.0250,-0.0650,-1.0125,-0.7624,0.5291,1.3871,-0.0592,1.0600,69.4919,83.5187,48.0337,297.7188,177.2656,-82.6094,0.00000000,0.00000000,0.00000000,
4.694998,-1.1086,-0.0250,-0.0650,-0.9762,-1.1187,0.2728,1.3871,-0.0592,1.0600,69.4919,83.5187,48.0337,297.7188,177.2656,-82.6094,0.00000000,0.00000000,0.00000000,
4.705245,-0.7733,0.0597,0.1269,-0.9762,-1.1187,0.2728,1.3871,-0.0592,1.0600,69.4919,83.5187,48.0337,297.7188,177.2656,-82.6094,0.00000000,0.00000000,0.00000000,
4.710252,-0.7733,0.0597,0.1269,-0.9762,-1.1187,0.2728,1.0451,-0.3774,0.7429,69.4919,83.5187,48.0337,297.7188,177.2656,-82.6094,0.00000000,0.00000000,0.00000000,
4.723653,-0.7733,0.0597,0.1269,-0.9762,-1.1187,0.2728,1.0451,-0.3774,0.7429,69.4919,83.5187,48.0337,299.7344,177.9688,-82.2500,0.00000000,0.00000000,0.00000000,
4.742257,-0.7733,0.0597,0.1269,-0.9762,-1.1187,0.2728,1.0451,-0.3774,0.7429,71.4886,84.5217,44.7995,299.7344,177.9688,-82.2500,0.00000000,0.00000000,0.00000000,
4.746405,-0.7733,0.0597,0.1269,1.6595,-0.1100,2.9754,1.0451,-0.3774,0.7429,71.4886,84.5217,44.7995,299.7344,177.9688,-82.2500,0.00000000,0.00000000,0.00000000,
4.763815,-0.7733,0.0597,0.1269,1.6595,-0.1100,2.9754,1.0451,-0.3774,0.7429,71.4886,84.5217,44.7995,303.0469,178.0625,-82.2969,0.00000000,0.00000000,0.00000000,
4.774321,-1.0357,0.0938,0.1486,1.6595,-0.1100,2.9754,1.0451,-0.3774,0.7429,71.4886,84.5217,44.7995,303.0469,178.0625,-82.2969,0.00000000,0.00000000,0.00000000,
4.784705,-1.0357,0.0938,0.1486,1.6595,-0.1100,2.9754,1.5966,-0.3924,0.2556,71.4886,84.5217,44.7995,303.0469,178.0625,-82.2969,0.00000000,0.00000000,0.00000000,
4.803433,-1.0357,0.0938,0.1486,1.0691,-0.0949,2.0375,1.5966,-0.3924,0.2556,71.4886,84.5217,44.7995,303.0469,178.0625,-82.2969,0.00000000,0.00000000,0.00000000,
4.807936,-1.0357,0.0938,0.1486,1.0788,-0.1190,1.7219,1.5966,-0.3924,0.2556,71.4886,84.5217,44.7995,303.0469,178.0625,-82.2969,0.00000000,0.00000000,0.00000000,
4.810558,-1.0357,0.0938,0.1486,1.0788,-0.1190,1.7219,1.5966,-0.3924,0.2556,71.4886,84.5217,44.7995,307.6406,178.0938,-81.7969,0.00000000,0.00000000,0.00000000,
4.823697,-1.0357,0.0938,0.1486,1.0788,-0.1190,1.7219,1.5966,-0.3924,0.2556,72.6561,87.4988,40.3131,307.6406,178.0938,-81.7969,0.00000000,0.00000000,0.00000000,
4.828161,-1.0357,0.0938,0.1486,1.0788,-0.1190,1.7219,2.1342,-0.6757,0.1565,72.6561,87.4988,40.3131,307.6406,178.0938,-81.7969,0.00000000,0.00000000,0.00000000,
4.843886,-1.0545,0.0822,0.0182,1.0788,-0.1190,1.7219,2.1342,-0.6757,0.1565,72.6561,87.4988,40.3131,307.6406,178.0938,-81.7969,0.00000000,0.00000000,0.00000000,
4.849586,-1.0545,0.0822,0.0182,1.0788,-0.1190,1.7219,2.1342,-0.6757,0.1565,72.6561,87.4988,40.3131,312.2812,178.4062,-81.5938,0.00000000,0.00000000,0.00000000,
4.866513,-1.0545,0.0822,0.0182,-1.0715,0.0690,1.8152,2.1342,-0.6757,0.1565,72.6561,87.4988,40.3131,312.2812,178.4062,-81.5938,0.00000000,0.00000000,0.00000000,
4.882411,-1.0545,0.0822,0.0182,-1.0715,0.0690,1.8152,2.1342,-0.6757,0.1565,74.0514,90.4250,33.8515,312.2812,178.4062,-81.5938,0.00000000,0.00000000,0.00000000,
4.890771,-1.0545,0.0822,0.0182,-1.0715,0.0690,1.8152,2.1342,-0.6757,0.1565,74.0514,90.4250,33.8515,315.3594,179.5781,-81.9062,0.00000000,0.00000000,0.00000000,
4.907230,-1.0545,0.0822,0.0182,-1.0715,0.0690,1.8152,1.5813,-0.3294,0.0118,74.0514,90.4250,33.8515,315.3594,179.5781,-81.9062,0.00000000,0.00000000,0.00000000,
4.911773,-0.8884,0.1199,-0.1297,-1.0715,0.0690,1.8152,1.5813,-0.3294,0.0118,74.0514,90.4250,33.8515,315.3594,179.5781,-81.9062,0.00000000,0.00000000,0.00000000,
4.925465,-0.8884,0.1199,-0.1297,0.3242,0.1603,-0.1951,1.5813,-0.3294,0.0118,74.0514,90.4250,33.8515,315.3594,179.5781,-81.9062,0.00000000,0.00000000,0.00000000,
4.929490,-0.8884,0.1199,-0.1297,0.3266,0.2022,-0.2709,1.5813,-0.3294,0.0118,74.0514,90.4250,33.8515,315.3594,179.5781,-81.9062,0.00000000,0.00000000,0.00000000,
4.931882,-0.8884,0.1199,-0.1297,0.3266,0.2022,-0.2709,1.5813,-0.3294,0.0118,74.0514,90.4250,33.8515,316.4688,-178.3906,-81.8594,0.00000000,0.00000000,0.00000000,
4.951397,-0.8884,0.1199,-0.1297,0.3266,0.2022,-0.2709,1.5813,-0.3294,0.0118,74.5288,91.5180,29.9714,316.4688,-178.3906,-81.8594,0.00000000,0.00000000,0.00000000,
4.972720,-0.8884,0.1199,-0.1297,0.3266,0.2022,-0.2709,1.5813,-0.3294,0.0118,74.5288,91.5180,29.9714,316.4219,-176.1875,-82.4375,0.00000000,0.00000000,0.00000000,
4.974962,-0.8476,0.1027,-0.0918,0.3266,0.2022,-0.2709,1.5813,-0.3294,0.0118,74.5288,91.5180,29.9714,316.4219,-176.1875,-82.4375,0.00000000,0.00000000,0.00000000,
5.002356,-0.8476,0.1027,-0.0918,1.7364,0.4753,-1.0021,1.5813,-0.3294,0.0118,74.5288,91.5180,29.9714,316.4219,-176.1875,-82.4375,0.00000000,0.00000000,0.00000000,
5.005319,-0.8476,0.1027,-0.0918,1.7364,0.4753,-1.0021,0.6026,-0.4253,-0.1636,74.5288,91.5180,29.9714,316.4219,-176.1875,-82.4375,0.00000000,0.00000000,0.00000000,
5.013357,-0.8476,0.1027,-0.0918,1.7364,0.4753,-1.0021,0.6026,-0.4253,-0.1636,74.5288,91.5180,29.9714,318.2344,-175.2969,-82.1094,0.00000000,0.00000000,0.00000000,
5.026131,-0.8476,0.1027,-0.0918,1.7364,0.4753,-1.0021,0.6026,-0.4253,-0.1636,73.9476,92.0175,27.5841,318.2344,-175.2969,-82.1094,0.00000000,0.00000000,0.00000000,
5.029049,-0.8476,0.1027,-0.0918,1.7364,0.4753,-1.0021,-0.6614,-0.2504,-0.1946,73.9476,92.0175,27.5841,318.2344,-175.2969,-82.1094,0.00000000,0.00000000,0.00000000,
5.034955,-0.9899,0.1220,0.0929,1.7364,0.4753,-1.0021,-0.6614,-0.2504,-0.1946,73.9476,92.0175,27.5841,318.2344,-175.2969,-82.1094,0.00000000,0.00000000,0.00000000,
5.045827,-0.9899,0.1220,0.0929,1.1448,0.3628,-0.3105,-0.6614,-0.2504,-0.1946,73.9476,92.0175,27.5841,318.2344,-175.2969,-82.1094,0.00000000,0.00000000,0.00000000,
5.047136,-0.9899,0.1220,0.0929,1.1320,0.4311,-0.4140,-0.6614,-0.2504,-0.1946,73.9476,92.0175,27.5841,318.2344,-175.2969,-82.1094,0.00000000,0.00000000,0.00000000,
5.054672,-0.9899,0.1220,0.0929,1.1320,0.4311,-0.4140,-0.6614,-0.2504,-0.1946,73.9476,92.0175,27.5841,321.5312,-175.0938,-82.1719,0.00000000,0.00000000,0.00000000,
5.082462,-0.9899,0.1220,0.0929,1.1320,0.4311,-0.4140,-0.6614,-0.2504,-0.1946,73.4540,91.1249,26.8043,321.5312,-175.0938,-82.1719,0.00000000,0.00000000,0.00000000,
5.097801,-0.9899,0.1220,0.0929,1.1320,0.4311,-0.4140,-0.6614,-0.2504,-0.1946,73.4540,91.1249,26.8043,325.8750,-174.8906,-83.2188,0.00000000,0.00000000,0.00000000,
5.109241,-0.9899,0.1220,0.0929,1.1320,0.4311,-0.4140,0.1416,-0.3797,-0.2349,73.4540,91.1249,26.8043,325.8750,-174.8906,-83.2188,0.00000000,0.00000000,0.00000000,
5.112899,-0.9899,0.1220,0.0929,-0.1292,0.7418,1.2346,0.1416,-0.3797,-0.2349,73.4540,91.1249,26.8043,325.8750,-174.8906,-83.2188,0.00000000,0.00000000,0.00000000,
5.115392,-1.2059,0.2011,-0.0125,-0.1292,0.7418,1.2346,0.1416,-0.3797,-0.2349,73.4540,91.1249,26.8043,325.8750,-174.8906,-83.2188,0.00000000,0.00000000,0.00000000,
5.139847,-1.2059,0.2011,-0.0125,-0.1292,0.7418,1.2346,0.1416,-0.3797,-0.2349,73.4540,91.1249,26.8043,330.9844,-174.8906,-83.8750,0.00000000,0.00000000,0.00000000,
5.146014,-1.2059,0.2011,-0.0125,-0.1292,0.7418,1.2346,0.1416,-0.3797,-0.2349,73.7237,92.3380,24.4309,330.9844,-174.8906,-83.8750,0.00000000,0.00000000,0.00000000,
5.169756,-1.2059,0.2011,-0.0125,-2.1481,1.6996,-0.6328,0.1416,-0.3797,-0.2349,73.7237,92.3380,24.4309,330.9844,-174.8906,-83.8750,0.00000000,0.00000000,0.00000000,
5.174010,-1.2059,0.2011,-0.0125,-2.1181,1.7165,-0.8623,0.1416,-0.3797,-0.2349,73.7237,92.3380,24.4309,330.9844,-174.8906,-83.8750,0.00000000,0.00000000,0.00000000,
5.176457,-1.2517,0.3868,-0.1685,-2.1181,1.7165,-0.8623,0.1416,-0.3797,-0.2349,73.7237,92.3380,24.4309,330.9844,-174.8906,-83.8750,0.00000000,0.00000000,0.00000000,
5.179688,-1.2517,0.3868,-0.1685,-2.1181,1.7165,-0.8623,0.1416,-0.3797,-0.2349,73.7237,92.3380,24.4309,335.3438,-174.9375,-84.1406,0.00000000,0.00000000,0.00000000,
5.191011,-1.2517,0.3868,-0.1685,-2.1181,1.7165,-0.8623,0.7803,-0.5981,-0.1108,73.7237,92.3380,24.4309,335.3438,-174.9375,-84.1406,0.00000000,0.00000000,0.00000000,
5.221220,-1.2517,0.3868,-0.1685,-2.1181,1.7165,-0.8623,0.7803,-0.5981,-0.1108,74.8817,92.7071,21.4542,335.3438,-174.9375,-84.1406,0.00000000,0.00000000,0.00000000,
5.226419,-1.2517,0.3868,-0.1685,-2.1181,1.7165,-0.8623,0.7803,-0.5981,-0.1108,74.8817,92.7071,21.4542,340.8906,-175.5938,-85.2500,0.00000000,0.00000000,0.00000000,
5.230644,-1.2517,0.3868,-0.1685,-2.3164,3.3515,-2.2598,0.7803,-0.5981,-0.1108,74.8817,92.7071,21.4542,340.8906,-175.5938,-85.2500,0.00000000,0.00000000,0.00000000,
5.233960,-1.2517,0.3868,-0.1685,-2.3164,3.3515,-2.2598,-0.1198,0.3801,0.1814,74.8817,92.7071,21.4542,340.8906,-175.5938,-85.2500,0.00000000,0.00000000,0.00000000,
5.237366,-0.9546,0.1419,-0.0030,-2.3164,3.3515,-2.2598,-0.1198,0.3801,0.1814,74.8817,92.7071,21.4542,340.8906,-175.5938,-85.2500,0.00000000,0.00000000,0.00000000,
5.267563,-0.9546,0.1419,-0.0030,-2.3164,3.3515,-2.2598,-0.1198,0.3801,0.1814,74.8817,92.7071,21.4542,341.5938,-175.9688,-85.8906,0.00000000,0.00000000,0.00000000,
5.283336,-0.9546,0.1419,-0.0030,-2.3164,3.3515,-2.2598,-0.1198,0.3801,0.1814,75.8260,90.9151,23.1830,341.5938,-175.9688,-85.8906,0.00000000,0.00000000,0.00000000,
5.297904,-0.9546,0.1419,-0.0030,0.4295,1.1747,-0.2983,-0.1198,0.3801,0.1814,75.8260,90.9151,23.1830,341.5938,-175.9688,-85.8906,0.00000000,0.00000000,0.00000000,
5.305190,-0.9546,0.1419,-0.0030,0.4180,1.0003,0.1349,-0.1198,0.3801,0.1814,75.8260,90.9151,23.1830,341.5938,-175.9688,-85.8906,0.00000000,0.00000000,0.00000000,
5.311978,-0.9546,0.1419,-0.0030,0.4180,1.0003,0.1349,-0.1198,0.3801,0.1814,75.8260,90.9151,23.1830,340.5156,-176.4219,-86.4219,0.00000000,0.00000000,0.00000000,
5.317718,-0.9546,0.1419,-0.0030,0.4180,1.0003,0.1349,-0.3462,0.8874,0.4677,75.8260,90.9151,23.1830,340.5156,-176.4219,-86.4219,0.00000000,0.00000000,0.00000000,
5.320249,-0.9985,-0.0777,-0.1171,0.4180,1.0003,0.1349,-0.3462,0.8874,0.4677,75.8260,90.9151,23.1830,340.5156,-176.4219,-86.4219,0.00000000,0.00000000,0.00000000,
5.341613,-0.9985,-0.0777,-0.1171,0.4180,1.0003,0.1349,-0.3462,0.8874,0.4677,77.0110,88.7736,26.4248,340.5156,-176.4219,-86.4219,0.00000000,0.00000000,0.00000000,
5.346898,-0.9985,-0.0777,-0.1171,0.6681,-1.6836,-0.8488,-0.3462,0.8874,0.4677,77.0110,88.7736,26.4248,340.5156,-176.4219,-86.4219,0.00000000,0.00000000,0.00000000,
5.349777,-0.9985,-0.0777,-0.1171,0.6681,-1.6836,-0.8488,-0.3462,0.8874,0.4677,77.0110,88.7736,26.4248,339.9219,-2.9531,-87.0000,0.00000000,0.00000000,0.00000000,
5.377549,-1.1116,-0.1587,0.1565,0.6681,-1.6836,-0.8488,-0.3462,0.8874,0.4677,77.0110,88.7736,26.4248,339.9219,-2.9531,-87.0000,0.00000000,0.00000000,0.00000000,
5.391110,-1.1116,-0.1587,0.1565,0.6681,-1.6836,-0.8488,-1.5951,0.4289,0.4598,77.0110,88.7736,26.4248,339.9219,-2.9531,-87.0000,0.00000000,0.00000000,0.00000000,
5.395739,-1.1116,-0.1587,0.1565,0.6681,-1.6836,-0.8488,-1.5951,0.4289,0.4598,77.0110,88.7736,26.4248,341.8906,-2.4844,-87.0625,0.00000000,0.00000000,0.00000000,
5.410749,-1.1116,-0.1587,0.1565,-1.2956,-2.2568,1.1570,-1.5951,0.4289,0.4598,77.0110,88.7736,26.4248,341.8906,-2.4844,-87.0625,0.00000000,0.00000000,0.00000000,
5.414454,-1.1116,-0.1587,0.1565,-1.3035,-2.4002,1.2808,-1.5951,0.4289,0.4598,77.0110,88.7736,26.4248,341.8906,-2.4844,-87.0625,0.00000000,0.00000000,0.00000000,
5.423093,-1.1116,-0.1587,0.1565,-1.3035,-2.4002,1.2808,-1.5951,0.4289,0.4598,77.9724,84.9514,29.8460,341.8906,-2.4844,-87.0625,0.00000000,0.00000000,0.00000000,
5.427646,-1.1116,-0.1587,0.1565,-1.3035,-2.4002,1.2808,-1.5884,0.5556,0.2163,77.9724,84.9514,29.8460,341.8906,-2.4844,-87.0625,0.00000000,0.00000000,0.00000000,
5.430086,-1.1116,-0.1587,0.1565,-1.3035,-2.4002,1.2808,-1.5884,0.5556,0.2163,77.9724,84.9514,29.8460,344.0938,-2.2500,-86.3750,0.00000000,0.00000000,0.00000000,
5.440472,-0.8839,-0.2079,0.1264,-1.3035,-2.4002,1.2808,-1.5884,0.5556,0.2163,77.9724,84.9514,29.8460,344.0938,-2.2500,-86.3750,0.00000000,0.00000000,0.00000000,
5.468368,-0.8839,-0.2079,0.1264,0.3307,-3.4766,2.2999,-1.5884,0.5556,0.2163,77.9724,84.9514,29.8460,344.0938,-2.2500,-86.3750,0.00000000,0.00000000,0.00000000,
5.472490,-0.8839,-0.2079,0.1264,0.3307,-3.4766,2.2999,-1.5884,0.5556,0.2163,77.9724,84.9514,29.8460,344.8750,-2.3125,-85.4844,0.00000000,0.00000000,0.00000000,
5.484343,-0.8839,-0.2079,0.1264,0.3307,-3.4766,2.2999,-1.5884,0.5556,0.2163,78.7056,83.2993,33.7575,344.8750,-2.3125,-85.4844,0.00000000,0.00000000,0.00000000,
5.512373,-0.7488,-0.1110,-0.0372,0.3307,-3.4766,2.2999,-1.5884,0.5556,0.2163,78.7056,83.2993,33.7575,344.8750,-2.3125,-85.4844,0.00000000,0.00000000,0.00000000,
5.520281,-0.7488,-0.1110,-0.0372,0.3307,-3.4766,2.2999,-0.1365,0.3927,-0.0245,78.7056,83.2993,33.7575,344.8750,-2.3125,-85.4844,0.00000000,0.00000000,0.00000000,
5.524537,-0.7488,-0.1110,-0.0372,0.3307,-3.4766,2.2999,-0.1365,0.3927,-0.0245,78.7056,83.2993,33.7575,344.0469,-2.7500,-86.0312,0.00000000,0.00000000,0.00000000,
5.534623,-0.7488,-0.1110,-0.0372,2.1596,-2.8745,1.2205,-0.1365,0.3927,-0.0245,78.7056,83.2993,33.7575,344.0469,-2.7500,-86.0312,0.00000000,0.00000000,0.00000000,
5.540281,-0.7488,-0.1110,-0.0372,2.1130,-2.7925,1.3788,-0.1365,0.3927,-0.0245,78.7056,83.2993,33.7575,344.0469,-2.7500,-86.0312,0.00000000,0.00000000,0.00000000,
5.543499,-0.7488,-0.1110,-0.0372,2.1130,-2.7925,1.3788,-0.1365,0.3927,-0.0245,78.1363,83.7113,34.4341,344.0469,-2.7500,-86.0312,0.00000000,0.00000000,0.00000000,
5.555829,-0.7488,-0.1110,-0.0372,2.1130,-2.7925,1.3788,-0.1365,0.3927,-0.0245,78.1363,83.7113,34.4341,342.7031,-3.5625,-86.3906,0.00000000,0.00000000,0.00000000,
5.573856,-0.8082,-0.0089,-0.1227,2.1130,-2.7925,1.3788,-0.1365,0.3927,-0.0245,78.1363,83.7113,34.4341,342.7031,-3.5625,-86.3906,0.00000000,0.00000000,0.00000000,
5.590910,-0.8082,-0.0089,-0.1227,2.3305,-1.7764,0.1281,-0.1365,0.3927,-0.0245,78.1363,83.7113,34.4341,342.7031,-3.5625,-86.3906,0.00000000,0.00000000,0.00000000,
5.593959,-0.8082,-0.0089,-0.1227,2.3305,-1.7764,0.1281,0.6285,-0.0046,-0.0419,78.1363,83.7113,34.4341,342.7031,-3.5625,-86.3906,0.00000000,0.00000000,0.00000000,
5.596950,-0.8082,-0.0089,-0.1227,2.3305,-1.7764,0.1281,0.6285,-0.0046,-0.0419,78.1363,83.7113,34.4341,340.3281,-175.2344,-85.1250,0.00000000,0.00000000,0.00000000,
5.620892,-0.8082,-0.0089,-0.1227,2.3305,-1.7764,0.1281,0.6285,-0.0046,-0.0419,77.2458,83.7059,32.4710,340.3281,-175.2344,-85.1250,0.00000000,0.00000000,0.00000000,
5.631705,-0.8082,-0.0089,-0.1227,2.3305,-1.7764,0.1281,0.1718,-0.1993,-0.0059,77.2458,83.7059,32.4710,340.3281,-175.2344,-85.1250,0.00000000,0.00000000,0.00000000,
5.641842,-0.9902,0.1811,-0.1582,2.3305,-1.7764,0.1281,0.1718,-0.1993,-0.0059,77.2458,83.7059,32.4710,340.3281,-175.2344,-85.1250,0.00000000,0.00000000,0.00000000,
5.645192,-0.9902,0.1811,-0.1582,2.3305,-1.7764,0.1281,0.1718,-0.1993,-0.0059,77.2458,83.7059,32.4710,335.8125,-174.0312,-83.7969,0.00000000,0.00000000,0.00000000,
5.651688,-0.9902,0.1811,-0.1582,1.3694,-0.7867,-0.4985,0.1718,-0.1993,-0.0059,77.2458,83.7059,32.4710,335.8125,-174.0312,-83.7969,0.00000000,0.00000000,0.00000000,
5.654107,-0.9902,0.1811,-0.1582,1.3522,-0.7681,-0.5496,0.1718,-0.1993,-0.0059,77.2458,83.7059,32.4710,335.8125,-174.0312,-83.7969,0.00000000,0.00000000,0.00000000,
5.681505,-0.9902,0.1811,-0.1582,1.3522,-0.7681,-0.5496,0.1718,-0.1993,-0.0059,77.2458,83.7059,32.4710,330.0625,-173.0000,-82.5625,0.00000000,0.00000000,0.00000000,
5.686797,-0.9902,0.1811,-0.1582,1.3522,-0.7681,-0.5496,0.1718,-0.1993,-0.0059,78.0350,84.6635,31.9271,330.0625,-173.0000,-82.5625,0.00000000,0.00000000,0.00000000,
5.714634,-1.2210,0.3626,-0.5344,1.3522,-0.7681,-0.5496,0.1718,-0.1993,-0.0059,78.0350,84.6635,31.9271,330.0625,-173.0000,-82.5625,0.00000000,0.00000000,0.00000000,
5.721338,-1.2210,0.3626,-0.5344,-0.7010,1.3009,-1.1936,0.1718,-0.1993,-0.0059,78.0350,84.6635,31.9271,330.0625,-173.0000,-82.5625,0.00000000,0.00000000,0.00000000,
5.726018,-1.2210,0.3626,-0.5344,-0.7010,1.3009,-1.1936,0.6643,0.3763,-0.0551,78.0350,84.6635,31.9271,330.0625,-173.0000,-82.5625,0.00000000,0.00000000,0.00000000,
5.730716,-1.2210,0.3626,-0.5344,-0.7010,1.3009,-1.1936,0.6643,0.3763,-0.0551,78.0350,84.6635,31.9271,325.3750,-172.2969,-81.5781,0.00000000,0.00000000,0.00000000,
5.742893,-1.2210,0.3626,-0.5344,-0.7010,1.3009,-1.1936,0.6643,0.3763,-0.0551,77.9745,84.4180,31.2063,325.3750,-172.2969,-81.5781,0.00000000,0.00000000,0.00000000,
5.765373,-1.2210,0.3626,-0.5344,-0.7010,1.3009,-1.1936,0.6643,0.3763,-0.0551,77.9745,84.4180,31.2063,323.8594,-172.1875,-81.1875,0.00000000,0.00000000,0.00000000,
5.784717,-1.2210,0.3626,-0.5344,-2.3448,2.7915,-4.7285,0.6643,0.3763,-0.0551,77.9745,84.4180,31.2063,323.8594,-172.1875,-81.1875,0.00000000,0.00000000,0.00000000,
5.787765,-1.2115,0.2351,-0.4851,-2.3448,2.7915,-4.7285,0.6643,0.3763,-0.0551,77.9745,84.4180,31.2063,323.8594,-172.1875,-81.1875,0.00000000,0.00000000,0.00000000,
5.789588,-1.2115,0.2351,-0.4851,-2.3321,2.6985,-4.4936,0.6643,0.3763,-0.0551,77.9745,84.4180,31.2063,323.8594,-172.1875,-81.1875,0.00000000,0.00000000,0.00000000,
5.801895,-1.2115,0.2351,-0.4851,-2.3321,2.6985,-4.4936,-0.1164,0.3574,0.1640,77.9745,84.4180,31.2063,323.8594,-172.1875,-81.1875,0.00000000,0.00000000,0.00000000,
5.808957,-1.2115,0.2351,-0.4851,-2.3321,2.6985,-4.4936,-0.1164,0.3574,0.1640,77.9745,84.4180,31.2063,324.5312,-172.3750,-80.8281,0.00000000,0.00000000,0.00000000,
5.832129,-1.2115,0.2351,-0.4851,-2.3321,2.6985,-4.4936,-0.1164,0.3574,0.1640,78.4359,82.5700,33.0922,324.5312,-172.3750,-80.8281,0.00000000,0.00000000,0.00000000,
5.835534,-1.2115,0.2351,-0.4851,-2.0580,0.5904,-2.6986,-0.1164,0.3574,0.1640,78.4359,82.5700,33.0922,324.5312,-172.3750,-80.8281,0.00000000,0.00000000,0.00000000,
5.837870,-1.2115,0.2351,-0.4851,-2.0580,0.5904,-2.6986,-1.1807,0.4821,0.1442,78.4359,82.5700,33.0922,324.5312,-172.3750,-80.8281,0.00000000,0.00000000,0.00000000,
5.840866,-0.8857,-0.0398,0.0734,-2.0580,0.5904,-2.6986,-1.1807,0.4821,0.1442,78.4359,82.5700,33.0922,324.5312,-172.3750,-80.8281,0.00000000,0.00000000,0.00000000,
5.847036,-0.8857,-0.0398,0.0734,-2.0580,0.5904,-2.6986,-1.1807,0.4821,0.1442,78.4359,82.5700,33.0922,326.2969,-172.6250,-80.8438,0.00000000,0.00000000,0.00000000,
5.882686,-0.8857,-0.0398,0.0734,-2.0580,0.5904,-2.6986,-1.1807,0.4821,0.1442,78.3034,80.5416,35.6767,326.2969,-172.6250,-80.8438,0.00000000,0.00000000,0.00000000,
5.889187,-0.8857,-0.0398,0.0734,-2.0580,0.5904,-2.6986,-1.1807,0.4821,0.1442,78.3034,80.5416,35.6767,327.5000,-172.7344,-81.2812,0.00000000,0.00000000,0.00000000,
5.893008,-0.8857,-0.0398,0.0734,1.0768,-1.9297,2.2587,-1.1807,0.4821,0.1442,78.3034,80.5416,35.6767,327.5000,-172.7344,-81.2812,0.00000000,0.00000000,0.00000000,
5.895922,-0.8857,-0.0398,0.0734,1.0382,-1.9713,2.2761,-1.1807,0.4821,0.1442,78.3034,80.5416,35.6767,327.5000,-172.7344,-81.2812,0.00000000,0.00000000,0.00000000,
5.913190,-1.0475,0.1106,0.3061,1.0382,-1.9713,2.2761,-1.1807,0.4821,0.1442,78.3034,80.5416,35.6767,327.5000,-172.7344,-81.2812,0.00000000,0.00000000,0.00000000,
5.917393,-1.0475,0.1106,0.3061,1.0382,-1.9713,2.2761,-1.2627,0.0891,0.0096,78.3034,80.5416,35.6767,327.5000,-172.7344,-81.2812,0.00000000,0.00000000,0.00000000,
5.931734,-1.0475,0.1106,0.3061,1.0382,-1.9713,2.2761,-1.2627,0.0891,0.0096,78.3034,80.5416,35.6767,327.8281,-172.7656,-81.5000,0.00000000,0.00000000,0.00000000,
5.940771,-1.0475,0.1106,0.3061,1.0382,-1.9713,2.2761,-1.2627,0.0891,0.0096,78.2990,79.8868,36.7049,327.8281,-172.7656,-81.5000,0.00000000,0.00000000,0.00000000,
5.955864,-1.0475,0.1106,0.3061,-0.4204,-0.5818,4.1917,-1.2627,0.0891,0.0096,78.2990,79.8868,36.7049,327.8281,-172.7656,-81.5000,0.00000000,0.00000000,0.00000000,
5.974127,-0.8918,0.0626,0.1222,-0.4204,-0.5818,4.1917,-1.2627,0.0891,0.0096,78.2990,79.8868,36.7049,327.8281,-172.7656,-81.5000,0.00000000,0.00000000,0.00000000,
5.978881,-0.8918,0.0626,0.1222,-0.4204,-0.5818,4.1917,-1.2627,0.0891,0.0096,78.2990,79.8868,36.7049,329.4375,-173.0469,-81.0469,0.00000000,0.00000000,0.00000000,
5.994422,-0.8918,0.0626,0.1222,-0.4204,-0.5818,4.1917,-0.3713,-0.2572,-0.1695,78.2990,79.8868,36.7049,329.4375,-173.0469,-81.0469,0.00000000,0.00000000,0.00000000,
6.012057,-0.8918,0.0626,0.1222,0.5095,-0.7463,2.6536,-0.3713,-0.2572,-0.1695,78.2990,79.8868,36.7049,329.4375,-173.0469,-81.0469,0.00000000,0.00000000,0.00000000,
6.016465,-0.8918,0.0626,0.1222,0.5444,-0.6228,2.3715,-0.3713,-0.2572,-0.1695,78.2990,79.8868,36.7049,329.4375,-173.0469,-81.0469,0.00000000,0.00000000,0.00000000,
6.020748,-0.8918,0.0626,0.1222,0.5444,-0.6228,2.3715,-0.3713,-0.2572,-0.1695,78.2990,79.8868,36.7049,331.2500,-173.3281,-80.6406,0.00000000,0.00000000,0.00000000,
6.024418,-0.8918,0.0626,0.1222,0.5444,-0.6228,2.3715,-0.3713,-0.2572,-0.1695,78.8283,78.9196,34.9781,331.2500,-173.3281,-80.6406,0.00000000,0.00000000,0.00000000,
6.044157,-0.8918,0.0626,0.1222,0.5444,-0.6228,2.3715,0.3553,-0.6974,-0.2905,78.8283,78.9196,34.9781,331.2500,-173.3281,-80.6406,0.00000000,0.00000000,0.00000000,
6.047816,-0.7694,0.0752,0.0346,0.5444,-0.6228,2.3715,0.3553,-0.6974,-0.2905,78.8283,78.9196,34.9781,331.2500,-173.3281,-80.6406,0.00000000,0.00000000,0.00000000,
6.056262,-0.7694,0.0752,0.0346,0.5444,-0.6228,2.3715,0.3553,-0.6974,-0.2905,78.8283,78.9196,34.9781,331.0156,-173.0625,-79.7812,0.00000000,0.00000000,0.00000000,
6.082312,-0.7694,0.0752,0.0346,1.9721,-0.8024,1.4560,0.3553,-0.6974,-0.2905,78.8283,78.9196,34.9781,331.0156,-173.0625,-79.7812,0.00000000,0.00000000,0.00000000,
6.085610,-0.7694,0.0752,0.0346,1.9721,-0.8024,1.4560,0.3553,-0.6974,-0.2905,79.4182,80.5776,32.4626,331.0156,-173.0625,-79.7812,0.00000000,0.00000000,0.00000000,
6.097745,-0.7694,0.0752,0.0346,1.9721,-0.8024,1.4560,0.3553,-0.6974,-0.2905,79.4182,80.5776,32.4626,326.2500,-171.7031,-79.1250,0.00000000,0.00000000,0.00000000,
6.101793,-0.8115,0.1129,-0.0586,1.9721,-0.8024,1.4560,0.3553,-0.6974,-0.2905,79.4182,80.5776,32.4626,326.2500,-171.7031,-79.1250,0.00000000,0.00000000,0.00000000,
6.117463,-0.8115,0.1129,-0.0586,1.9721,-0.8024,1.4560,0.2239,-0.5602,-0.3179,79.4182,80.5776,32.4626,326.2500,-171.7031,-79.1250,0.00000000,0.00000000,0.00000000,
6.133726,-0.8115,0.1129,-0.0586,2.3197,0.0517,-0.3154,0.2239,-0.5602,-0.3179,79.4182,80.5776,32.4626,326.2500,-171.7031,-79.1250,0.00000000,0.00000000,0.00000000,
6.136560,-0.8115,0.1129,-0.0586,2.3028,0.1811,-0.5242,0.2239,-0.5602,-0.3179,79.4182,80.5776,32.4626,326.2500,-171.7031,-79.1250,0.00000000,0.00000000,0.00000000,
6.140253,-0.8115,0.1129,-0.0586,2.3028,0.1811,-0.5242,0.2239,-0.5602,-0.3179,79.4182,80.5776,32.4626,323.0156,-171.2188,-78.0469,0.00000000,0.00000000,0.00000000,
6.142319,-0.8115,0.1129,-0.0586,2.3028,0.1811,-0.5242,0.2239,-0.5602,-0.3179,79.9626,81.5741,30.4665,323.0156,-171.2188,-78.0469,0.00000000,0.00000000,0.00000000,
6.175451,-1.0234,0.1439,-0.0989,2.3028,0.1811,-0.5242,0.2239,-0.5602,-0.3179,79.9626,81.5741,30.4665,323.0156,-171.2188,-78.0469,0.00000000,0.00000000,0.00000000,
6.182889,-1.0234,0.1439,-0.0989,2.3028,0.1811,-0.5242,0.2239,-0.5602,-0.3179,79.9626,81.5741,30.4665,319.7812,-170.8281,-77.5469,0.00000000,0.00000000,0.00000000,
6.208463,-1.0234,0.1439,-0.0989,2.3028,0.1811,-0.5242,0.4148,-0.4504,-0.4336,79.9626,81.5741,30.4665,319.7812,-170.8281,-77.5469,0.00000000,0.00000000,0.00000000,
6.211691,-1.0234,0.1439,-0.0989,0.5564,0.0961,0.2337,0.4148,-0.4504,-0.4336,79.9626,81.5741,30.4665,319.7812,-170.8281,-77.5469,0.00000000,0.00000000,0.00000000,
6.221810,-1.0234,0.1439,-0.0989,0.5564,0.0961,0.2337,0.4148,-0.4504,-0.4336,80.2044,83.4063,26.8309,319.7812,-170.8281,-77.5469,0.00000000,0.00000000,0.00000000,
6.225953,-1.0234,0.1439,-0.0989,0.5564,0.0961,0.2337,0.4148,-0.4504,-0.4336,80.2044,83.4063,26.8309,316.2812,-170.3281,-77.8125,0.00000000,0.00000000,0.00000000,
6.234386,-1.0234,0.1439,-0.0989,0.5564,0.0961,0.2337,0.8082,-0.8545,-0.2535,80.2044,83.4063,26.8309,316.2812,-170.3281,-77.8125,0.00000000,0.00000000,0.00000000,
6.241521,-1.2046,0.3497,-0.2725,0.5564,0.0961,0.2337,0.8082,-0.8545,-0.2535,80.2044,83.4063,26.8309,316.2812,-170.3281,-77.8125,0.00000000,0.00000000,0.00000000,
6.256024,-1.2046,0.3497,-0.2725,-1.0047,1.4568,-2.2558,0.8082,-0.8545,-0.2535,80.2044,83.4063,26.8309,316.2812,-170.3281,-77.8125,0.00000000,0.00000000,0.00000000,
6.260618,-1.2046,0.3497,-0.2725,-0.9941,1.4995,-2.5436,0.8082,-0.8545,-0.2535,80.2044,83.4063,26.8309,316.2812,-170.3281,-77.8125,0.00000000,0.00000000,0.00000000,
6.263472,-1.2046,0.3497,-0.2725,-0.9941,1.4995,-2.5436,0.8082,-0.8545,-0.2535,80.2044,83.4063,26.8309,315.6875,-170.5938,-78.4375,0.00000000,0.00000000,0.00000000,
6.282705,-1.2046,0.3497,-0.2725,-0.9941,1.4995,-2.5436,0.8082,-0.8545,-0.2535,80.5318,83.3600,24.5418,315.6875,-170.5938,-78.4375,0.00000000,0.00000000,0.00000000,
6.302199,-1.2594,0.3913,-0.0680,-0.9941,1.4995,-2.5436,0.8082,-0.8545,-0.2535,80.5318,83.3600,24.5418,315.6875,-170.5938,-78.4375,0.00000000,0.00000000,0.00000000,
6.307320,-1.2594,0.3913,-0.0680,-0.9941,1.4995,-2.5436,0.8082,-0.8545,-0.2535,80.5318,83.3600,24.5418,317.0469,-171.2500,-79.7812,0.00000000,0.00000000,0.00000000,
6.314781,-1.2594,0.3913,-0.0680,-2.3568,3.2752,-2.7377,0.8082,-0.8545,-0.2535,80.5318,83.3600,24.5418,317.0469,-171.2500,-79.7812,0.00000000,0.00000000,0.00000000,
6.318762,-1.2594,0.3913,-0.0680,-2.3568,3.2752,-2.7377,-0.7236,0.0662,0.0450,80.5318,83.3600,24.5418,317.0469,-171.2500,-79.7812,0.00000000,0.00000000,0.00000000,
6.345559,-1.2594,0.3913,-0.0680,-2.3568,3.2752,-2.7377,-0.7236,0.0662,0.0450,81.3687,82.3223,26.7298,317.0469,-171.2500,-79.7812,0.00000000,0.00000000,0.00000000,
6.353660,-1.2594,0.3913,-0.0680,-2.3568,3.2752,-2.7377,-0.7236,0.0662,0.0450,81.3687,82.3223,26.7298,319.0156,-172.0156,-81.1562,0.00000000,0.00000000,0.00000000,
6.380164,-1.2594,0.3913,-0.0680,-2.3843,2.6077,-0.5027,-0.7236,0.0662,0.0450,81.3687,82.3223,26.7298,319.0156,-172.0156,-81.1562,0.00000000,0.00000000,0.00000000,
6.388082,-1.1064,0.1218,0.0628,-2.3843,2.6077,-0.5027,-0.7236,0.0662,0.0450,81.3687,82.3223,26.7298,319.0156,-172.0156,-81.1562,0.00000000,0.00000000,0.00000000,
6.394541,-1.1064,0.1218,0.0628,-2.3522,2.4147,-0.2753,-0.7236,0.0662,0.0450,81.3687,82.3223,26.7298,319.0156,-172.0156,-81.1562,0.00000000,0.00000000,0.00000000,
6.399399,-1.1064,0.1218,0.0628,-2.3522,2.4147,-0.2753,-0.7236,0.0662,0.0450,81.3687,82.3223,26.7298,320.7500,-172.7500,-82.2969,0.00000000,0.00000000,0.00000000,
6.401742,-1.1064,0.1218,0.0628,-2.3522,2.4147,-0.2753,-0.7266,0.6403,0.4048,81.3687,82.3223,26.7298,320.7500,-172.7500,-82.2969,0.00000000,0.00000000,0.00000000,
6.424134,-1.1064,0.1218,0.0628,-2.3522,2.4147,-0.2753,-0.7266,0.6403,0.4048,81.4574,80.1034,29.8041,320.7500,-172.7500,-82.2969,0.00000000,0.00000000,0.00000000,
6.430080,-1.1064,0.1218,0.0628,-2.3522,2.4147,-0.2753,-0.7266,0.6403,0.4048,81.4574,80.1034,29.8041,321.7344,-173.5312,-83.3906,0.00000000,0.00000000,0.00000000,
6.434622,-1.1064,0.1218,0.0628,-0.5770,-0.3421,0.6162,-0.7266,0.6403,0.4048,81.4574,80.1034,29.8041,321.7344,-173.5312,-83.3906,0.00000000,0.00000000,0.00000000,
6.438544,-1.1064,0.1218,0.0628,-0.5770,-0.3421,0.6162,-1.1677,0.7908,0.3936,81.4574,80.1034,29.8041,321.7344,-173.5312,-83.3906,0.00000000,0.00000000,0.00000000,
6.446979,-1.0166,-0.1638,-0.0058,-0.5770,-0.3421,0.6162,-1.1677,0.7908,0.3936,81.4574,80.1034,29.8041,321.7344,-173.5312,-83.3906,0.00000000,0.00000000,0.00000000,
6.472794,-1.0166,-0.1638,-0.0058,-0.5770,-0.3421,0.6162,-1.1677,0.7908,0.3936,81.4574,80.1034,29.8041,323.6875,-174.5469,-84.5312,0.00000000,0.00000000,0.00000000,
6.482415,-1.0166,-0.1638,-0.0058,-0.5770,-0.3421,0.6162,-1.1677,0.7908,0.3936,81.1563,76.6544,32.9422,323.6875,-174.5469,-84.5312,0.00000000,0.00000000,0.00000000,
6.497461,-1.0166,-0.1638,-0.0058,-0.1871,-2.9437,0.3826,-1.1677,0.7908,0.3936,81.1563,76.6544,32.9422,323.6875,-174.5469,-84.5312,0.00000000,0.00000000,0.00000000,
6.503401,-1.0166,-0.1638,-0.0058,-0.2057,-3.0388,0.4134,-1.1677,0.7908,0.3936,81.1563,76.6544,32.9422,323.6875,-174.5469,-84.5312,0.00000000,0.00000000,0.00000000,
6.507671,-0.9902,-0.2378,0.1977,-0.2057,-3.0388,0.4134,-1.1677,0.7908,0.3936,81.1563,76.6544,32.9422,323.6875,-174.5469,-84.5312,0.00000000,0.00000000,0.00000000,
6.515513,-0.9902,-0.2378,0.1977,-0.2057,-3.0388,0.4134,-1.1677,0.7908,0.3936,81.1563,76.6544,32.9422,327.4375,-4.5469,-85.3125,0.00000000,0.00000000,0.00000000,
6.519657,-0.9902,-0.2378,0.1977,-0.2057,-3.0388,0.4134,-1.7612,0.4999,0.2172,81.1563,76.6544,32.9422,327.4375,-4.5469,-85.3125,0.00000000,0.00000000,0.00000000,
6.542128,-0.9902,-0.2378,0.1977,-0.2057,-3.0388,0.4134,-1.7612,0.4999,0.2172,80.5730,74.1156,36.2219,327.4375,-4.5469,-85.3125,0.00000000,0.00000000,0.00000000,
6.555723,-0.9902,-0.2378,0.1977,-0.1184,-3.9087,2.7639,-1.7612,0.4999,0.2172,80.5730,74.1156,36.2219,327.4375,-4.5469,-85.3125,0.00000000,0.00000000,0.00000000,
6.560143,-0.9902,-0.2378,0.1977,-0.1184,-3.9087,2.7639,-1.7612,0.4999,0.2172,80.5730,74.1156,36.2219,328.3906,-3.9844,-84.9531,0.00000000,0.00000000,0.00000000,
6.575588,-0.8115,-0.0585,-0.0345,-0.1184,-3.9087,2.7639,-1.7612,0.4999,0.2172,80.5730,74.1156,36.2219,328.3906,-3.9844,-84.9531,0.00000000,0.00000000,0.00000000,
6.594969,-0.8115,-0.0585,-0.0345,-0.1184,-3.9087,2.7639,0.5650,0.6139,-0.1024,80.5730,74.1156,36.2219,328.3906,-3.9844,-84.9531,0.00000000,0.00000000,0.00000000,
6.599146,-0.8115,-0.0585,-0.0345,-0.1184,-3.9087,2.7639,0.5650,0.6139,-0.1024,80.5730,74.1156,36.2219,326.0781,-4.2969,-84.7812,0.00000000,0.00000000,0.00000000,
6.617544,-0.8115,-0.0585,-0.0345,1.6406,-1.9693,0.7639,0.5650,0.6139,-0.1024,80.5730,74.1156,36.2219,326.0781,-4.2969,-84.7812,0.00000000,0.00000000,0.00000000,
6.622345,-0.8115,-0.0585,-0.0345,1.6041,-1.8027,0.9987,0.5650,0.6139,-0.1024,80.5730,74.1156,36.2219,326.0781,-4.2969,-84.7812,0.00000000,0.00000000,0.00000000,
6.627280,-0.8115,-0.0585,-0.0345,1.6041,-1.8027,0.9987,0.5650,0.6139,-0.1024,79.6523,75.4029,36.9759,326.0781,-4.2969,-84.7812,0.00000000,0.00000000,0.00000000,
6.634927,-0.8115,-0.0585,-0.0345,1.6041,-1.8027,0.9987,0.9712,0.3734,-0.1841,79.6523,75.4029,36.9759,326.0781,-4.2969,-84.7812,0.00000000,0.00000000,0.00000000,
6.637914,-0.7439,0.0625,-0.0487,1.6041,-1.8027,0.9987,0.9712,0.3734,-0.1841,79.6523,75.4029,36.9759,326.0781,-4.2969,-84.7812,0.00000000,0.00000000,0.00000000,
6.640403,-0.7439,0.0625,-0.0487,1.6041,-1.8027,0.9987,0.9712,0.3734,-0.1841,79.6523,75.4029,36.9759,323.4375,-5.1094,-84.5938,0.00000000,0.00000000,0.00000000,
6.677379,-0.7439,0.0625,-0.0487,2.2369,-0.8789,0.9487,0.9712,0.3734,-0.1841,79.6523,75.4029,36.9759,323.4375,-5.1094,-84.5938,0.00000000,0.00000000,0.00000000,
6.685384,-0.7439,0.0625,-0.0487,2.2369,-0.8789,0.9487,0.9712,0.3734,-0.1841,79.6523,75.4029,36.9759,320.6250,-173.9219,-83.8906,0.00000000,0.00000000,0.00000000,
6.690986,-0.7439,0.0625,-0.0487,2.2369,-0.8789,0.9487,0.9712,0.3734,-0.1841,79.9892,77.7301,36.9458,320.6250,-173.9219,-83.8906,0.00000000,0.00000000,0.00000000,
6.711590,-0.7861,0.1936,-0.1622,2.2369,-0.8789,0.9487,0.9712,0.3734,-0.1841,79.9892,77.7301,36.9458,320.6250,-173.9219,-83.8906,0.00000000,0.00000000,0.00000000,
6.715764,-0.7861,0.1936,-0.1622,2.2369,-0.8789,0.9487,0.5894,-0.0680,-0.0913,79.9892,77.7301,36.9458,320.6250,-173.9219,-83.8906,0.00000000,0.00000000,0.00000000,
6.723000,-0.7861,0.1936,-0.1622,2.2369,-0.8789,0.9487,0.5894,-0.0680,-0.0913,79.9892,77.7301,36.9458,316.0469,-172.8750,-82.6562,0.00000000,0.00000000,0.00000000,
6.735903,-0.7861,0.1936,-0.1622,2.3529,0.7879,0.0915,0.5894,-0.0680,-0.0913,79.9892,77.7301,36.9458,316.0469,-172.8750,-82.6562,0.00000000,0.00000000,0.00000000,
6.739231,-0.7861,0.1936,-0.1622,2.3289,0.8191,0.0056,0.5894,-0.0680,-0.0913,79.9892,77.7301,36.9458,316.0469,-172.8750,-82.6562,0.00000000,0.00000000,0.00000000,
6.742156,-0.7861,0.1936,-0.1622,2.3289,0.8191,0.0056,0.5894,-0.0680,-0.0913,80.0244,77.7152,35.6402,316.0469,-172.8750,-82.6562,0.00000000,0.00000000,0.00000000,
6.755350,-0.7861,0.1936,-0.1622,2.3289,0.8191,0.0056,0.8046,-0.3510,0.0666,80.0244,77.7152,35.6402,316.0469,-172.8750,-82.6562,0.00000000,0.00000000,0.00000000,
6.763553,-0.7861,0.1936,-0.1622,2.3289,0.8191,0.0056,0.8046,-0.3510,0.0666,80.0244,77.7152,35.6402,310.5312,-172.0781,-81.8125,0.00000000,0.00000000,0.00000000,
6.781905,-1.0647,0.2509,-0.2787,2.3289,0.8191,0.0056,0.8046,-0.3510,0.0666,80.0244,77.7152,35.6402,310.5312,-172.0781,-81.8125,0.00000000,0.00000000,0.00000000,
6.796380,-1.0647,0.2509,-0.2787,0.6750,1.1002,-1.3579,0.8046,-0.3510,0.0666,80.0244,77.7152,35.6402,310.5312,-172.0781,-81.8125,0.00000000,0.00000000,0.00000000,
6.805136,-1.0647,0.2509,-0.2787,0.6750,1.1002,-1.3579,0.8046,-0.3510,0.0666,80.0244,77.7152,35.6402,307.2031,-171.7344,-81.0781,0.00000000,0.00000000,0.00000000,
6.833743,-1.0647,0.2509,-0.2787,0.6750,1.1002,-1.3579,0.8046,-0.3510,0.0666,80.8457,78.5698,34.2133,307.2031,-171.7344,-81.0781,0.00000000,0.00000000,0.00000000,
6.838241,-1.3211,0.1100,-0.6838,0.6750,1.1002,-1.3579,0.8046,-0.3510,0.0666,80.8457,78.5698,34.2133,307.2031,-171.7344,-81.0781,0.00000000,0.00000000,0.00000000,
6.840722,-1.3211,0.1100,-0.6838,0.6750,1.1002,-1.3579,0.6255,0.1728,0.0524,80.8457,78.5698,34.2133,307.2031,-171.7344,-81.0781,0.00000000,0.00000000,0.00000000,
6.846986,-1.3211,0.1100,-0.6838,0.6750,1.1002,-1.3579,0.6255,0.1728,0.0524,80.8457,78.5698,34.2133,308.5469,-172.0469,-80.6406,0.00000000,0.00000000,0.00000000,
6.855740,-1.3211,0.1100,-0.6838,-2.2380,1.4923,-2.0312,0.6255,0.1728,0.0524,80.8457,78.5698,34.2133,308.5469,-172.0469,-80.6406,0.00000000,0.00000000,0.00000000,
6.859199,-1.3211,0.1100,-0.6838,-2.2201,1.4919,-1.8245,0.6255,0.1728,0.0524,80.8457,78.5698,34.2133,308.5469,-172.0469,-80.6406,0.00000000,0.00000000,0.00000000,
6.882076,-1.3211,0.1100,-0.6838,-2.2201,1.4919,-1.8245,0.6255,0.1728,0.0524,80.8185,78.2933,35.3533,308.5469,-172.0469,-80.6406,0.00000000,0.00000000,0.00000000,
6.889266,-1.3211,0.1100,-0.6838,-2.2201,1.4919,-1.8245,0.6255,0.1728,0.0524,80.8185,78.2933,35.3533,311.8281,-172.8281,-80.3594,0.00000000,0.00000000,0.00000000,
6.909718,-1.1688,0.0586,-0.0477,-2.2201,1.4919,-1.8245,0.6255,0.1728,0.0524,80.8185,78.2933,35.3533,311.8281,-172.8281,-80.3594,0.00000000,0.00000000,0.00000000,
6.916265,-1.1688,0.0586,-0.0477,-2.2201,1.4919,-1.8245,-0.4723,0.3677,0.4087,80.8185,78.2933,35.3533,311.8281,-172.8281,-80.3594,0.00000000,0.00000000,0.00000000,
6.919565,-1.1688,0.0586,-0.0477,-2.9448,0.0078,-6.3586,-0.4723,0.3677,0.4087,80.8185,78.2933,35.3533,311.8281,-172.8281,-80.3594,0.00000000,0.00000000,0.00000000,
6.935460,-1.1688,0.0586,-0.0477,-2.9448,0.0078,-6.3586,-0.4723,0.3677,0.4087,80.8185,78.2933,35.3533,314.3594,-173.4531,-80.1250,0.00000000,0.00000000,0.00000000,
6.944501,-1.1688,0.0586,-0.0477,-2.9448,0.0078,-6.3586,-0.4723,0.3677,0.4087,80.7647,75.9388,35.9327,314.3594,-173.4531,-80.1250,0.00000000,0.00000000,0.00000000,
6.956250,-1.1688,0.0586,-0.0477,-2.9448,0.0078,-6.3586,-0.1789,0.2726,0.2498,80.7647,75.9388,35.9327,314.3594,-173.4531,-80.1250,0.00000000,0.00000000,0.00000000,
6.974648,-1.1688,0.0586,-0.0477,-2.9448,0.0078,-6.3586,-0.1789,0.2726,0.2498,80.7647,75.9388,35.9327,316.1250,-173.8906,-80.2500,0.00000000,0.00000000,0.00000000,
6.979912,-0.9134,0.0037,0.1290,-2.9448,0.0078,-6.3586,-0.1789,0.2726,0.2498,80.7647,75.9388,35.9327,316.1250,-173.8906,-80.2500,0.00000000,0.00000000,0.00000000,
6.982224,-0.9134,0.0037,0.1290,-1.0431,-1.7409,3.9215,-0.1789,0.2726,0.2498,80.7647,75.9388,35.9327,316.1250,-173.8906,-80.2500,0.00000000,0.00000000,0.00000000,
6.984550,-0.9134,0.0037,0.1290,-1.0568,-1.8018,3.9660,-0.1789,0.2726,0.2498,80.7647,75.9388,35.9327,316.1250,-173.8906,-80.2500,0.00000000,0.00000000,0.00000000,
7.014089,-0.9134,0.0037,0.1290,-1.0568,-1.8018,3.9660,-0.1789,0.2726,0.2498,80.7647,75.9388,35.9327,317.8906,-174.1562,-80.7969,0.00000000,0.00000000,0.00000000,
7.022444,-0.9134,0.0037,0.1290,-1.0568,-1.8018,3.9660,-0.1789,0.2726,0.2498,81.3424,74.9759,35.5751,317.8906,-174.1562,-80.7969,0.00000000,0.00000000,0.00000000,
7.039823,-1.0684,0.0404,0.2389,-1.0568,-1.8018,3.9660,-0.1789,0.2726,0.2498,81.3424,74.9759,35.5751,317.8906,-174.1562,-80.7969,0.00000000,0.00000000,0.00000000,
7.043827,-1.0684,0.0404,0.2389,-1.0568,-1.8018,3.9660,-0.5640,-0.3254,0.1792,81.3424,74.9759,35.5751,317.8906,-174.1562,-80.7969,0.00000000,0.00000000,0.00000000,
7.046160,-1.0684,0.0404,0.2389,0.1956,-1.1802,2.6751,-0.5640,-0.3254,0.1792,81.3424,74.9759,35.5751,317.8906,-174.1562,-80.7969,0.00000000,0.00000000,0.00000000,
7.057220,-1.0684,0.0404,0.2389,0.1956,-1.1802,2.6751,-0.5640,-0.3254,0.1792,81.3424,74.9759,35.5751,319.8594,-174.2188,-81.2969,0.00000000,0.00000000,0.00000000,
7.081994,-1.0684,0.0404,0.2389,0.1956,-1.1802,2.6751,-0.5640,-0.3254,0.1792,80.7858,73.2420,35.0656,319.8594,-174.2188,-81.2969,0.00000000,0.00000000,0.00000000,
7.098091,-1.0684,0.0404,0.2389,-0.6139,-1.3533,3.3312,-0.5640,-0.3254,0.1792,80.7858,73.2420,35.0656,319.8594,-174.2188,-81.2969,0.00000000,0.00000000,0.00000000,
7.101592,-1.0684,0.0404,0.2389,-0.6139,-1.3533,3.3312,-0.5640,-0.3254,0.1792,80.7858,73.2420,35.0656,321.5781,-174.1094,-81.4062,0.00000000,0.00000000,0.00000000,
7.103590,-1.0684,0.0404,0.2389,-0.5852,-1.2890,3.1717,-0.5640,-0.3254,0.1792,80.7858,73.2420,35.0656,321.5781,-174.1094,-81.4062,0.00000000,0.00000000,0.00000000,
7.109923,-0.8931,-0.0293,-0.0187,-0.5852,-1.2890,3.1717,-0.5640,-0.3254,0.1792,80.7858,73.2420,35.0656,321.5781,-174.1094,-81.4062,0.00000000,0.00000000,0.00000000,
7.117463,-0.8931,-0.0293,-0.0187,-0.5852,-1.2890,3.1717,0.1253,-0.3031,-0.1260,80.7858,73.2420,35.0656,321.5781,-174.1094,-81.4062,0.00000000,0.00000000,0.00000000,
7.140533,-0.8931,-0.0293,-0.0187,-0.5852,-1.2890,3.1717,0.1253,-0.3031,-0.1260,80.7858,73.2420,35.0656,322.8750,-174.2500,-80.7031,0.00000000,0.00000000,0.00000000,
7.145424,-0.8931,-0.0293,-0.0187,-0.5852,-1.2890,3.1717,0.1253,-0.3031,-0.1260,81.4088,74.7272,32.5837,322.8750,-174.2500,-80.7031,0.00000000,0.00000000,0.00000000,
7.158055,-0.8931,-0.0293,-0.0187,0.9166,-1.7756,0.6462,0.1253,-0.3031,-0.1260,81.4088,74.7272,32.5837,322.8750,-174.2500,-80.7031,0.00000000,0.00000000,0.00000000,
7.162091,-0.8931,-0.0293,-0.0187,0.9166,-1.7756,0.6462,0.4982,-0.9035,-0.2872,81.4088,74.7272,32.5837,322.8750,-174.2500,-80.7031,0.00000000,0.00000000,0.00000000,
7.172583,-0.7468,0.1584,-0.1164,0.9166,-1.7756,0.6462,0.4982,-0.9035,-0.2872,81.4088,74.7272,32.5837,322.8750,-174.2500,-80.7031,0.00000000,0.00000000,0.00000000,
7.180475,-0.7468,0.1584,-0.1164,0.9166,-1.7756,0.6462,0.4982,-0.9035,-0.2872,81.4088,74.7272,32.5837,321.4688,-173.5156,-79.3594,0.00000000,0.00000000,0.00000000,
7.220302,-0.7468,0.1584,-0.1164,2.3749,0.1359,-0.4776,0.4982,-0.9035,-0.2872,81.4088,74.7272,32.5837,321.4688,-173.5156,-79.3594,0.00000000,0.00000000,0.00000000,
7.226889,-0.7468,0.1584,-0.1164,2.3585,0.2334,-0.7563,0.4982,-0.9035,-0.2872,81.4088,74.7272,32.5837,321.4688,-173.5156,-79.3594,0.00000000,0.00000000,0.00000000,
7.231214,-0.7468,0.1584,-0.1164,2.3585,0.2334,-0.7563,0.4982,-0.9035,-0.2872,81.4338,75.5233,30.4694,321.4688,-173.5156,-79.3594,0.00000000,0.00000000,0.00000000,
7.235782,-0.7468,0.1584,-0.1164,2.3585,0.2334,-0.7563,0.4982,-0.9035,-0.2872,81.4338,75.5233,30.4694,317.1250,-171.5938,-78.3594,0.00000000,0.00000000,0.00000000,
7.245170,-0.7468,0.1584,-0.1164,2.3585,0.2334,-0.7563,-0.4998,-0.6015,-0.2594,81.4338,75.5233,30.4694,317.1250,-171.5938,-78.3594,0.00000000,0.00000000,0.00000000,
7.249714,-0.8410,0.2379,-0.1292,2.3585,0.2334,-0.7563,-0.4998,-0.6015,-0.2594,81.4338,75.5233,30.4694,317.1250,-171.5938,-78.3594,0.00000000,0.00000000,0.00000000,
7.264417,-0.8410,0.2379,-0.1292,2.3585,0.2334,-0.7563,-0.4998,-0.6015,-0.2594,81.4338,75.5233,30.4694,316.2031,-171.0625,-77.5000,0.00000000,0.00000000,0.00000000,
7.279312,-0.8410,0.2379,-0.1292,1.7750,1.0361,-1.7524,-0.4998,-0.6015,-0.2594,81.4338,75.5233,30.4694,316.2031,-171.0625,-77.5000,0.00000000,0.00000000,0.00000000,
7.282938,-0.8410,0.2379,-0.1292,1.7750,1.0361,-1.7524,-0.4998,-0.6015,-0.2594,81.3562,76.0836,29.4658,316.2031,-171.0625,-77.5000,0.00000000,0.00000000,0.00000000,
7.305528,-0.8410,0.2379,-0.1292,1.7750,1.0361,-1.7524,-0.4998,-0.6015,-0.2594,81.3562,76.0836,29.4658,314.5781,-170.2969,-77.4219,0.00000000,0.00000000,0.00000000,
7.310728,-1.0082,0.3130,-0.0518,1.7750,1.0361,-1.7524,-0.4998,-0.6015,-0.2594,81.3562,76.0836,29.4658,314.5781,-170.2969,-77.4219,0.00000000,0.00000000,0.00000000,
7.323367,-1.0082,0.3130,-0.0518,1.7750,1.0361,-1.7524,-0.5531,-0.2965,-0.2305,81.3562,76.0836,29.4658,314.5781,-170.2969,-77.4219,0.00000000,0.00000000,0.00000000,
7.341472,-1.0082,0.3130,-0.0518,0.3749,1.9459,-0.2022,-0.5531,-0.2965,-0.2305,81.3562,76.0836,29.4658,314.5781,-170.2969,-77.4219,0.00000000,0.00000000,0.00000000,
7.346014,-1.0082,0.3130,-0.0518,0.3722,1.9816,-0.3781,-0.5531,-0.2965,-0.2305,81.3562,76.0836,29.4658,314.5781,-170.2969,-77.4219,0.00000000,0.00000000,0.00000000,
7.349286,-1.0082,0.3130,-0.0518,0.3722,1.9816,-0.3781,-0.5531,-0.2965,-0.2305,82.7536,76.5497,28.6111,314.5781,-170.2969,-77.4219,0.00000000,0.00000000,0.00000000,
7.351408,-1.0082,0.3130,-0.0518,0.3722,1.9816,-0.3781,-0.5531,-0.2965,-0.2305,82.7536,76.5497,28.6111,312.7969,-169.8438,-77.7188,0.00000000,0.00000000,0.00000000,
7.358622,-1.0082,0.3130,-0.0518,0.3722,1.9816,-0.3781,-0.3298,-0.3317,-0.0389,82.7536,76.5497,28.6111,312.7969,-169.8438,-77.7188,0.00000000,0.00000000,0.00000000,
7.372103,-1.1988,0.3424,-0.0798,0.3722,1.9816,-0.3781,-0.3298,-0.3317,-0.0389,82.7536,76.5497,28.6111,312.7969,-169.8438,-77.7188,0.00000000,0.00000000,0.00000000,
7.389701,-1.1988,0.3424,-0.0798,0.3722,1.9816,-0.3781,-0.3298,-0.3317,-0.0389,82.7536,76.5497,28.6111,313.0156,-170.0938,-78.2812,0.00000000,0.00000000,0.00000000,
7.400448,-1.1988,0.3424,-0.0798,-1.4020,1.8669,-1.2073,-0.3298,-0.3317,-0.0389,82.7536,76.5497,28.6111,313.0156,-170.0938,-78.2812,0.00000000,0.00000000,0.00000000,
7.422440,-1.1988,0.3424,-0.0798,-1.4020,1.8669,-1.2073,-0.3298,-0.3317,-0.0389,81.2909,75.2422,28.3997,313.0156,-170.0938,-78.2812,0.00000000,0.00000000,0.00000000,
7.430028,-1.1988,0.3424,-0.0798,-1.4020,1.8669,-1.2073,-0.3298,-0.3317,-0.0389,81.2909,75.2422,28.3997,315.4688,-170.6406,-79.1406,0.00000000,0.00000000,0.00000000,
7.439721,-1.2737,0.3881,-0.0458,-1.4020,1.8669,-1.2073,-0.3298,-0.3317,-0.0389,81.2909,75.2422,28.3997,315.4688,-170.6406,-79.1406,0.00000000,0.00000000,0.00000000,
7.444069,-1.2737,0.3881,-0.0458,-1.4020,1.8669,-1.2073,-0.6988,-0.1013,0.2051,81.2909,75.2422,28.3997,315.4688,-170.6406,-79.1406,0.00000000,0.00000000,0.00000000,
7.460692,-1.2737,0.3881,-0.0458,-2.6924,3.1034,-1.6958,-0.6988,-0.1013,0.2051,81.2909,75.2422,28.3997,315.4688,-170.6406,-79.1406,0.00000000,0.00000000,0.00000000,
7.464921,-1.2737,0.3881,-0.0458,-2.6648,2.9538,-1.7818,-0.6988,-0.1013,0.2051,81.2909,75.2422,28.3997,315.4688,-170.6406,-79.1406,0.00000000,0.00000000,0.00000000,
7.472374,-1.2737,0.3881,-0.0458,-2.6648,2.9538,-1.7818,-0.6988,-0.1013,0.2051,81.2909,75.2422,28.3997,317.6250,-171.4062,-80.7031,0.00000000,0.00000000,0.00000000,
7.481657,-1.2737,0.3881,-0.0458,-2.6648,2.9538,-1.7818,-0.6988,-0.1013,0.2051,82.4941,73.9624,29.6476,317.6250,-171.4062,-80.7031,0.00000000,0.00000000,0.00000000,
7.510375,-0.9280,0.0620,0.0289,-2.6648,2.9538,-1.7818,-0.6988,-0.1013,0.2051,82.4941,73.9624,29.6476,317.6250,-171.4062,-80.7031,0.00000000,0.00000000,0.00000000,
7.515156,-0.9280,0.0620,0.0289,-2.6648,2.9538,-1.7818,-0.6988,-0.1013,0.2051,82.4941,73.9624,29.6476,318.0625,-171.9844,-81.7969,0.00000000,0.00000000,0.00000000,
7.519394,-0.9280,0.0620,0.0289,-1.9370,1.1500,0.6245,-0.6988,-0.1013,0.2051,82.4941,73.9624,29.6476,318.0625,-171.9844,-81.7969,0.00000000,0.00000000,0.00000000,
7.522805,-0.9280,0.0620,0.0289,-1.9370,1.1500,0.6245,-0.8649,1.2676,0.5254,82.4941,73.9624,29.6476,318.0625,-171.9844,-81.7969,0.00000000,0.00000000,0.00000000,
7.545106,-0.9280,0.0620,0.0289,-1.9370,1.1500,0.6245,-0.8649,1.2676,0.5254,81.8127,72.4613,34.3079,318.0625,-171.9844,-81.7969,0.00000000,0.00000000,0.00000000,
7.559244,-0.9280,0.0620,0.0289,-1.9370,1.1500,0.6245,-0.8649,1.2676,0.5254,81.8127,72.4613,34.3079,317.0312,-172.5625,-82.5469,0.00000000,0.00000000,0.00000000,
7.566198,-0.9280,0.0620,0.0289,-1.9370,1.1500,0.6245,-1.0385,0.8156,0.3251,81.8127,72.4613,34.3079,317.0312,-172.5625,-82.5469,0.00000000,0.00000000,0.00000000,
7.579179,-1.1062,-0.1869,0.0593,-1.9370,1.1500,0.6245,-1.0385,0.8156,0.3251,81.8127,72.4613,34.3079,317.0312,-172.5625,-82.5469,0.00000000,0.00000000,0.00000000,
7.584462,-1.1062,-0.1869,0.0593,1.0505,-2.0016,0.1734,-1.0385,0.8156,0.3251,81.8127,72.4613,34.3079,317.0312,-172.5625,-82.5469,0.00000000,0.00000000,0.00000000,
7.588000,-1.1062,-0.1869,0.0593,0.9959,-2.1126,0.3439,-1.0385,0.8156,0.3251,81.8127,72.4613,34.3079,317.0312,-172.5625,-82.5469,0.00000000,0.00000000,0.00000000,
7.598117,-1.1062,-0.1869,0.0593,0.9959,-2.1126,0.3439,-1.0385,0.8156,0.3251,81.8127,72.4613,34.3079,316.2188,-6.8906,-83.1094,0.00000000,0.00000000,0.00000000,
7.621707,-1.1062,-0.1869,0.0593,0.9959,-2.1126,0.3439,-1.0385,0.8156,0.3251,81.4184,69.3272,37.0943,316.2188,-6.8906,-83.1094,0.00000000,0.00000000,0.00000000,
7.641662,-1.1062,-0.1869,0.0593,0.9959,-2.1126,0.3439,-1.0385,0.8156,0.3251,81.4184,69.3272,37.0943,316.2188,-6.4688,-83.3594,0.00000000,0.00000000,0.00000000,
7.646943,-1.1062,-0.1869,0.0593,0.9959,-2.1126,0.3439,-1.1912,0.4417,-0.1571,81.4184,69.3272,37.0943,316.2188,-6.4688,-83.3594,0.00000000,0.00000000,0.00000000,
7.650147,-1.1062,-0.1869,0.0593,-1.3310,-4.1487,2.3073,-1.1912,0.4417,-0.1571,81.4184,69.3272,37.0943,316.2188,-6.4688,-83.3594,0.00000000,0.00000000,0.00000000,
7.652718,-0.9311,-0.2290,0.1540,-1.3310,-4.1487,2.3073,-1.1912,0.4417,-0.1571,81.4184,69.3272,37.0943,316.2188,-6.4688,-83.3594,0.00000000,0.00000000,0.00000000,
7.680705,-0.9311,-0.2290,0.1540,-1.3310,-4.1487,2.3073,-1.1912,0.4417,-0.1571,81.4184,69.3272,37.0943,315.5938,-6.4062,-83.2031,0.00000000,0.00000000,0.00000000,
7.685873,-0.9311,-0.2290,0.1540,-1.3310,-4.1487,2.3073,-1.1912,0.4417,-0.1571,80.3770,70.5094,38.5450,315.5938,-6.4062,-83.2031,0.00000000,0.00000000,0.00000000,
7.701935,-0.9311,-0.2290,0.1540,0.8199,-3.5234,1.7408,-1.1912,0.4417,-0.1571,80.3770,70.5094,38.5450,315.5938,-6.4062,-83.2031,0.00000000,0.00000000,0.00000000,
7.707842,-0.7807,-0.0680,-0.1043,0.8199,-3.5234,1.7408,-1.1912,0.4417,-0.1571,80.3770,70.5094,38.5450,315.5938,-6.4062,-83.2031,0.00000000,0.00000000,0.00000000,
7.710565,-0.7807,-0.0680,-0.1043,0.8128,-3.2878,1.9288,-1.1912,0.4417,-0.1571,80.3770,70.5094,38.5450,315.5938,-6.4062,-83.2031,0.00000000,0.00000000,0.00000000,
7.722919,-0.7807,-0.0680,-0.1043,0.8128,-3.2878,1.9288,1.1818,0.3912,-0.3524,80.3770,70.5094,38.5450,315.5938,-6.4062,-83.2031,0.00000000,0.00000000,0.00000000,
7.727961,-0.7807,-0.0680,-0.1043,0.8128,-3.2878,1.9288,1.1818,0.3912,-0.3524,80.3770,70.5094,38.5450,311.7344,-7.1562,-82.2031,0.00000000,0.00000000,0.00000000,
7.742198,-0.7807,-0.0680,-0.1043,0.8128,-3.2878,1.9288,1.1818,0.3912,-0.3524,79.9735,72.2665,39.2218,311.7344,-7.1562,-82.2031,0.00000000,0.00000000,0.00000000,
7.761566,-0.7807,-0.0680,-0.1043,0.8128,-3.2878,1.9288,1.0651,0.0132,-0.2481,79.9735,72.2665,39.2218,311.7344,-7.1562,-82.2031,0.00000000,0.00000000,0.00000000,
7.765572,-0.7807,-0.0680,-0.1043,2.0528,-1.7290,0.1202,1.0651,0.0132,-0.2481,79.9735,72.2665,39.2218,311.7344,-7.1562,-82.2031,0.00000000,0.00000000,0.00000000,
7.767801,-0.7807,-0.0680,-0.1043,2.0528,-1.7290,0.1202,1.0651,0.0132,-0.2481,79.9735,72.2665,39.2218,308.2031,-8.3125,-81.6562,0.00000000,0.00000000,0.00000000,
7.774353,-0.7454,0.1042,-0.0869,2.0528,-1.7290,0.1202,1.0651,0.0132,-0.2481,79.9735,72.2665,39.2218,308.2031,-8.3125,-81.6562,0.00000000,0.00000000,0.00000000,
7.805243,-0.7454,0.1042,-0.0869,2.0528,-1.7290,0.1202,1.0651,0.0132,-0.2481,79.9735,72.2665,39.2218,304.7344,-170.5156,-80.0781,0.00000000,0.00000000,0.00000000,
7.841319,-0.7454,0.1042,-0.0869,2.0528,-1.7290,0.1202,1.0651,0.0132,-0.2481,80.1574,75.7755,37.2953,304.7344,-170.5156,-80.0781,0.00000000,0.00000000,0.00000000,
7.846410,-0.7454,0.1042,-0.0869,2.3504,0.0009,0.3004,1.0651,0.0132,-0.2481,80.1574,75.7755,37.2953,304.7344,-170.5156,-80.0781,0.00000000,0.00000000,0.00000000,
7.849648,-0.7454,0.1042,-0.0869,2.3466,0.1589,0.1223,1.0651,0.0132,-0.2481,80.1574,75.7755,37.2953,304.7344,-170.5156,-80.0781,0.00000000,0.00000000,0.00000000,
7.851762,-0.7454,0.1042,-0.0869,2.3466,0.1589,0.1223,1.0042,-0.4598,-0.3721,80.1574,75.7755,37.2953,304.7344,-170.5156,-80.0781,0.00000000,0.00000000,0.00000000,
7.854130,-0.8805,0.1545,-0.1583,2.3466,0.1589,0.1223,1.0042,-0.4598,-0.3721,80.1574,75.7755,37.2953,304.7344,-170.5156,-80.0781,0.00000000,0.00000000,0.00000000,
7.856495,-0.8805,0.1545,-0.1583,2.3466,0.1589,0.1223,1.0042,-0.4598,-0.3721,80.1574,75.7755,37.2953,301.0781,-169.6719,-78.9219,0.00000000,0.00000000,0.00000000,
7.883851,-0.8805,0.1545,-0.1583,2.3466,0.1589,0.1223,1.0042,-0.4598,-0.3721,79.2223,77.7435,34.3199,301.0781,-169.6719,-78.9219,0.00000000,0.00000000,0.00000000,
7.892065,-0.8805,0.1545,-0.1583,1.2411,0.7434,-0.2149,1.0042,-0.4598,-0.3721,79.2223,77.7435,34.3199,301.0781,-169.6719,-78.9219,0.00000000,0.00000000,0.00000000,
7.899382,-0.8805,0.1545,-0.1583,1.2411,0.7434,-0.2149,1.0042,-0.4598,-0.3721,79.2223,77.7435,34.3199,296.7969,-169.5312,-78.8281,0.00000000,0.00000000,0.00000000,
7.903730,-1.1975,0.3511,-0.4338,1.2411,0.7434,-0.2149,1.0042,-0.4598,-0.3721,79.2223,77.7435,34.3199,296.7969,-169.5312,-78.8281,0.00000000,0.00000000,0.00000000,
7.922595,-1.1975,0.3511,-0.4338,1.2411,0.7434,-0.2149,1.4318,-0.1597,-0.3062,79.2223,77.7435,34.3199,296.7969,-169.5312,-78.8281,0.00000000,0.00000000,0.00000000,
7.931719,-1.1975,0.3511,-0.4338,1.2411,0.7434,-0.2149,1.4318,-0.1597,-0.3062,79.2223,77.7435,34.3199,295.6406,-170.0000,-78.7812,0.00000000,0.00000000,0.00000000,
7.942177,-1.1975,0.3511,-0.4338,1.2411,0.7434,-0.2149,1.4318,-0.1597,-0.3062,78.9443,79.9661,34.4989,295.6406,-170.0000,-78.7812,0.00000000,0.00000000,0.00000000,
7.946313,-1.1975,0.3511,-0.4338,-1.1717,3.4136,-2.3486,1.4318,-0.1597,-0.3062,78.9443,79.9661,34.4989,295.6406,-170.0000,-78.7812,0.00000000,0.00000000,0.00000000,
7.949248,-1.1975,0.3511,-0.4338,-1.1775,3.5199,-2.0139,1.4318,-0.1597,-0.3062,78.9443,79.9661,34.4989,295.6406,-170.0000,-78.7812,0.00000000,0.00000000,0.00000000,
7.962183,-1.1975,0.3511,-0.4338,-1.1775,3.5199,-2.0139,0.5347,1.1378,-0.1086,78.9443,79.9661,34.4989,295.6406,-170.0000,-78.7812,0.00000000,0.00000000,0.00000000,
7.971918,-1.2510,0.0768,-0.7839,-1.1775,3.5199,-2.0139,0.5347,1.1378,-0.1086,78.9443,79.9661,34.4989,295.6406,-170.0000,-78.7812,0.00000000,0.00000000,0.00000000,
7.975017,-1.2510,0.0768,-0.7839,-1.1775,3.5199,-2.0139,0.5347,1.1378,-0.1086,78.9443,79.9661,34.4989,299.0938,-171.0625,-79.0000,0.00000000,0.00000000,0.00000000,
8.005916,-1.2510,0.0768,-0.7839,-2.7454,-0.4422,-5.8096,0.5347,1.1378,-0.1086,78.9443,79.9661,34.4989,299.0938,-171.0625,-79.0000,0.00000000,0.00000000,0.00000000,
8.015088,-1.2510,0.0768,-0.7839,-2.7454,-0.4422,-5.8096,0.5347,1.1378,-0.1086,78.9443,79.9661,34.4989,303.4375,-172.3125,-79.0781,0.00000000,0.00000000,0.00000000,
8.022925,-1.2510,0.0768,-0.7839,-2.7454,-0.4422,-5.8096,0.5347,1.1378,-0.1086,77.8977,80.0723,37.2936,303.4375,-172.3125,-79.0781,0.00000000,0.00000000,0.00000000,
8.046506,-1.1863,-0.0223,-0.0063,-2.7454,-0.4422,-5.8096,0.5347,1.1378,-0.1086,77.8977,80.0723,37.2936,303.4375,-172.3125,-79.0781,0.00000000,0.00000000,0.00000000,
8.050452,-1.1863,-0.0223,-0.0063,-2.7454,-0.4422,-5.8096,-0.0556,0.4123,0.0178,77.8977,80.0723,37.2936,303.4375,-172.3125,-79.0781,0.00000000,0.00000000,0.00000000,
8.056579,-1.1863,-0.0223,-0.0063,-2.7454,-0.4422,-5.8096,-0.0556,0.4123,0.0178,77.8977,80.0723,37.2936,306.5625,-173.1250,-79.5625,0.00000000,0.00000000,0.00000000,
8.065942,-1.1863,-0.0223,-0.0063,-3.2950,1.2253,-1.3504,-0.0556,0.4123,0.0178,77.8977,80.0723,37.2936,306.5625,-173.1250,-79.5625,0.00000000,0.00000000,0.00000000,
8.069101,-1.1863,-0.0223,-0.0063,-3.2396,1.3375,-1.3031,-0.0556,0.4123,0.0178,77.8977,80.0723,37.2936,306.5625,-173.1250,-79.5625,0.00000000,0.00000000,0.00000000,
8.083565,-1.1863,-0.0223,-0.0063,-3.2396,1.3375,-1.3031,-0.0556,0.4123,0.0178,76.6898,81.1507,38.0716,306.5625,-173.1250,-79.5625,0.00000000,0.00000000,0.00000000,
8.098618,-1.1863,-0.0223,-0.0063,-3.2396,1.3375,-1.3031,-0.0556,0.4123,0.0178,76.6898,81.1507,38.0716,309.6875,-174.0938,-80.9531,0.00000000,0.00000000,0.00000000,
8.108957,-0.9566,-0.1091,0.1311,-3.2396,1.3375,-1.3031,-0.0556,0.4123,0.0178,76.6898,81.1507,38.0716,309.6875,-174.0938,-80.9531,0.00000000,0.00000000,0.00000000,
8.124092,-0.9566,-0.1091,0.1311,-3.2396,1.3375,-1.3031,0.6066,0.4113,-0.6529,76.6898,81.1507,38.0716,309.6875,-174.0938,-80.9531,0.00000000,0.00000000,0.00000000,
8.129057,-0.9566,-0.1091,0.1311,0.2276,-1.2440,2.7843,0.6066,0.4113,-0.6529,76.6898,81.1507,38.0716,309.6875,-174.0938,-80.9531,0.00000000,0.00000000,0.00000000,
