time,ax,ay,az (m/s^2),aT (m/s^2)
0.000960,-0.5636,0.4735,-1.9624,2.096
0.002677,-0.2145,0.2958,-1.6199,1.661
0.006665,0.0048,0.2098,-1.3618,1.378
0.011784,0.0433,0.3249,-0.9528,1.008
0.018669,0.2146,0.4875,-0.5431,0.761
0.022449,0.3714,0.5393,-0.3266,0.732
0.025917,0.4986,0.5401,-0.2467,0.775
0.031843,0.4511,0.6194,-0.3803,0.855
0.036326,0.4987,0.5971,-0.2844,0.828
0.041246,0.5229,0.6416,-0.0491,0.829
0.052470,0.5382,0.5437,0.0584,0.767
0.052814,0.6155,0.6836,0.4800,1.038
0.056676,0.6707,1.0388,1.1973,1.721
0.060426,0.6859,1.3569,1.7587,2.325
0.065108,0.6618,1.5250,2.3302,2.862
0.070242,0.6686,1.4830,2.6848,3.139
0.076111,0.5388,1.1424,2.7822,3.056
0.080204,0.5076,0.5848,2.7376,2.845
0.084949,0.4593,-0.0288,2.4451,2.488
0.089711,0.4540,-0.5235,2.0071,2.123
0.095055,0.4531,-0.8614,1.4922,1.782
0.098865,0.3327,-1.0929,0.9504,1.486
0.104441,0.0058,-1.1971,0.5202,1.305
0.108810,-0.4699,-1.1097,0.2350,1.228
0.113669,-1.0057,-0.8622,0.1855,1.338
0.119936,-1.4829,-0.5122,0.2160,1.584
0.122710,-1.8808,-0.2323,0.2752,1.915
0.127392,-1.8821,-0.0530,-0.0530,1.884
0.135580,-1.9516,0.0169,0.2170,1.964
0.137904,-1.9399,0.0072,0.2403,1.955
0.142576,-1.8875,-0.0022,0.2513,1.904
0.147518,-1.7650,-0.0012,0.1639,1.773
0.152299,-1.5797,0.0416,0.1910,1.592
0.156767,-1.4311,0.1983,0.3422,1.485
0.161842,-1.2748,0.3302,0.5217,1.416
0.167115,-1.0779,0.4828,0.7565,1.403
0.171929,-0.8450,0.6199,1.0206,1.463
0.176793,-0.5665,0.7581,1.4339,1.718
0.181682,-0.2893,0.8466,1.8268,2.034
0.185752,0.0421,0.8655,2.0083,2.187
0.191788,0.3625,0.7953,2.0838,2.260
0.195868,0.5365,0.6303,1.9556,2.124
0.200335,0.5851,0.4536,1.8081,1.954
0.205213,0.5074,0.2675,1.5741,1.675
0.210169,0.3282,0.0931,1.3638,1.406
0.221923,0.1062,-0.1245,1.1098,1.122
0.222230,-0.1785,-0.2920,0.8695,0.934
0.225272,-0.4444,-0.4546,0.6953,0.942
0.231790,-0.6029,-0.5714,0.6325,1.044
0.235101,-0.6922,-0.6944,0.5228,1.111
0.239030,-0.7203,-0.8284,0.3663,1.157
0.243793,-0.7572,-0.9226,0.1819,1.207
0.249019,-0.7645,-0.9777,-0.0112,1.241
0.254279,-0.7056,-0.9678,-0.1220,1.204
0.259263,-0.6037,-0.8740,-0.1122,1.068
0.264129,-0.5758,-0.7474,0.0496,0.945
0.268155,-0.5588,-0.6029,0.3133,0.880
0.273841,-0.4647,-0.3984,0.4207,0.743
0.278623,-0.3210,-0.1575,0.4510,0.576
0.282713,-0.1498,0.0703,0.4302,0.461
0.288080,-0.0224,0.2713,0.3080,0.411
0.292129,0.0106,0.3693,0.0509,0.373
0.297299,0.0155,0.3627,-0.2503,0.441
0.301855,-0.0225,0.3616,-0.4904,0.610
0.307267,-0.0390,0.3064,-0.5715,0.650
0.312500,-0.0891,0.2977,-0.5487,0.631
0.316416,-0.0943,0.3116,-0.5228,0.616
0.321970,-0.0960,0.2379,-0.5605,0.616
0.326907,-0.0911,0.2535,-0.6352,0.690
0.332301,-0.1119,0.2840,-0.6034,0.676
0.336332,-0.1093,0.2838,-0.4244,0.522
0.340448,-0.0975,0.2608,-0.1847,0.334
0.346026,-0.0661,0.2444,0.0409,0.257
0.350417,-0.0265,0.1588,0.2879,0.330
0.355951,-0.0221,-0.1324,0.4318,0.452
0.360323,0.0618,-0.4661,0.3532,0.588
0.364860,0.1878,-0.7911,-0.0724,0.816
0.371697,0.1696,-0.9971,-0.0868,1.015
0.375748,0.1516,-0.9893,-0.0824,1.004
0.380834,-0.0892,-1.2634,-0.3026,1.302
0.384509,-0.2792,-1.3632,-0.4763,1.471
0.389360,-0.3373,-1.1319,-0.4694,1.271
0.394628,-0.3162,-0.7262,-0.3751,0.876
0.398601,-0.3002,-0.3575,-0.3603,0.590
0.403989,-0.3049,-0.0355,-0.4011,0.505
0.409367,-0.3459,0.2187,-0.3398,0.532
0.413836,-0.4708,0.3431,-0.3463,0.678
0.418015,-0.5581,0.2337,-0.4046,0.728
0.423323,-0.3735,0.6688,-0.3646,0.848
0.428409,0.1291,1.5275,-0.4043,1.585
0.432471,0.7092,2.1386,-0.7516,2.375
0.438356,1.1768,2.5583,-1.0625,3.010
0.442914,1.9427,2.8301,-1.3445,3.687
0.449739,2.6698,2.4903,-1.5411,3.963
0.454244,3.1078,1.6919,-1.3750,3.796
0.457002,3.3552,1.1384,-1.0883,3.706
0.462417,3.4964,0.8671,-0.9845,3.734
0.466319,3.4721,0.7433,-0.7045,3.620
0.472124,3.4203,0.5843,-0.5428,3.512
0.476788,3.3714,0.5428,-0.2294,3.423
0.481071,3.2835,0.4547,0.0948,3.316
0.485733,3.1468,0.3799,0.1437,3.173
0.490961,2.8131,0.3717,-0.0100,2.838
0.495609,2.4734,0.4224,-0.5808,2.576
0.500564,1.9829,0.4868,-1.5179,2.544
0.505527,1.4437,0.5286,-2.4623,2.903
0.510941,0.9667,0.4795,-3.0679,3.252
0.516208,0.5588,0.2612,-3.3236,3.380
0.519501,0.2815,0.0676,-3.2426,3.256
0.525198,0.0237,-0.0706,-3.0672,3.068
0.530136,-0.1927,-0.1516,-2.8385,2.849
0.534292,-0.3854,-0.1372,-2.6140,2.646
0.539357,-0.5783,-0.0393,-2.4846,2.551
0.544253,-0.9070,0.0920,-2.3449,2.516
0.548783,-1.3653,0.3167,-2.1996,2.608
0.553391,-1.7097,0.5199,-1.9101,2.616
0.559138,-1.9823,0.6876,-1.3601,2.500
0.565578,-2.0885,0.8105,-0.7565,2.365
0.568325,-2.2415,0.8678,-0.1766,2.410
0.573189,-2.4246,0.9102,0.1548,2.594
0.578467,-2.6649,0.8895,0.2383,2.819
0.582465,-2.8904,0.7946,0.1497,3.001
0.588155,-3.1120,0.6594,0.1176,3.183
0.593095,-3.2339,0.5298,0.3078,3.291
0.597852,-3.3225,0.3748,0.7113,3.418
0.601850,-3.1673,0.2378,1.1348,3.373
0.607132,-2.7724,0.1619,1.4309,3.124
0.611917,-2.2801,0.0591,1.8540,2.939
0.616385,-1.8286,-0.1056,2.2495,2.901
0.621189,-1.4154,-0.3214,2.5650,2.947
0.626877,-0.9467,-0.4735,2.7958,2.990
0.630621,-0.3019,-0.5785,2.9226,2.995
0.639406,0.3990,-0.6860,3.0862,3.187
0.640393,1.1004,-0.7401,3.2220,3.484
0.645497,1.6241,-0.7255,3.3556,3.798
0.650028,1.8977,-0.5961,3.4746,4.004
0.655577,2.0479,-0.4562,3.4375,4.027
0.660448,2.3702,-0.3497,3.1105,3.926
0.664773,2.4254,-0.2752,2.6581,3.609
0.669743,2.2619,-0.3726,2.2642,3.222
0.675438,2.0936,-0.5782,1.6200,2.710
0.680004,1.9411,-0.7232,0.8259,2.230
0.684145,1.2332,-0.9270,0.0079,1.543
0.689876,0.1522,-1.1037,-0.9252,1.448
0.694417,-1.0428,-1.0811,-1.8672,2.396
0.700415,-1.9888,-0.6472,-2.3431,3.141
0.703367,-2.4775,-0.5177,-2.9340,3.875
0.707777,-2.7912,-0.5017,-3.2381,4.304
0.713970,-2.8595,-0.5518,-3.1618,4.299
0.718866,-2.5330,-0.8484,-3.3195,4.261
0.723758,-2.1022,-1.0892,-2.8687,3.720
0.727129,-1.2010,-1.2353,-2.0580,2.684
0.734379,-0.7530,-1.2222,-1.2047,1.874
0.737564,-0.8503,-1.1980,-0.3057,1.501
0.742534,-0.9050,-1.1813,0.5891,1.600
0.747515,-0.8837,-0.8012,1.8410,2.194
0.751530,-0.6570,-0.9003,2.3039,2.559
0.756351,-0.3254,-1.0481,2.9856,3.181
0.761914,0.2355,-1.1559,2.9501,3.177
0.766209,0.6585,-0.8659,3.1898,3.370
0.771698,0.7646,-0.5434,2.8522,3.002
0.776988,0.6732,-0.1947,2.2034,2.312
0.781181,0.7876,0.2547,1.4518,1.671
0.786422,0.9741,0.6857,0.5714,1.321
0.790311,1.1209,0.9654,-0.4017,1.533
0.796846,1.1082,0.9898,-1.4125,2.050
0.800176,0.8396,0.8584,-2.0468,2.373
0.806166,0.5493,0.5095,-2.4608,2.572
0.810664,0.2006,0.0721,-2.2197,2.230
0.815953,-0.1152,-0.3126,-1.8815,1.911
0.819260,-0.3215,-0.6328,-1.6163,1.765
0.825021,-0.4428,-0.8576,-1.3303,1.644
0.829722,-0.4264,-1.0156,-1.0694,1.535
0.835138,-0.5301,-1.2910,-0.6853,1.555
0.839723,-0.5842,-1.5788,-0.2856,1.707
0.843564,-0.5647,-1.6378,0.0628,1.734
0.849853,-0.2270,-1.3633,0.2382,1.402
0.854947,0.0988,-1.0359,0.3172,1.088
0.858252,0.2655,-0.8566,0.3741,0.972
0.863318,0.2500,-0.8685,0.4471,1.008
0.867837,0.2094,-0.9132,0.4740,1.050
0.872432,0.2334,-0.9329,0.3044,1.009
0.877029,0.2399,-0.8345,0.0103,0.868
0.883249,0.2191,-0.7041,-0.3339,0.809
0.887179,0.2470,-0.5033,-0.7449,0.932
0.892110,0.1009,-0.4682,-1.1393,1.236
0.897444,0.0511,-0.5810,-1.5079,1.617
0.902348,0.0935,-0.5871,-1.7893,1.885
0.906107,0.1592,-0.5055,-1.8905,1.963
0.911586,0.3558,-0.4183,-1.8543,1.934
0.916374,0.5797,-0.2311,-1.6875,1.799
0.921034,0.6502,-0.0958,-1.4041,1.550
0.925246,0.6307,-0.1307,-0.9130,1.117
0.931663,0.5574,-0.2840,-0.4005,0.743
0.937931,0.4293,-0.3739,-0.0552,0.572
0.943463,0.3051,-0.4031,0.0491,0.508
0.945640,0.2536,-0.4627,0.0612,0.531
0.950132,0.1722,-0.5456,-0.0020,0.572
0.956059,0.0846,-0.5778,-0.0735,0.589
0.959138,0.0319,-0.6215,-0.0745,0.627
0.966711,-0.0181,-0.6503,0.0020,0.651
0.969401,0.1822,-0.5776,0.0906,0.612
0.975394,0.4325,-0.4886,0.0619,0.655
0.979633,0.4524,-0.4639,-0.0869,0.654
0.983641,0.3523,-0.5385,-0.2435,0.688
0.989567,0.3116,-0.5296,-0.4154,0.742
0.993167,0.2915,-0.5568,-0.5740,0.851
0.998427,0.2269,-0.5526,-0.8533,1.042
1.003316,0.2075,-0.5079,-1.1284,1.255
1.008695,0.2246,-0.4735,-1.2026,1.312
1.013806,0.1791,-0.3743,-1.0541,1.133
1.017508,0.0706,-0.3212,-0.7878,0.854
1.022213,-0.1052,-0.4271,-0.4539,0.632
1.027026,-0.1713,-0.6133,-0.1432,0.653
1.036963,-0.2880,-0.8268,0.1586,0.890
1.037706,-0.5309,-0.9918,0.4828,1.224
1.041909,-0.6333,-1.1706,0.8028,1.554
1.046539,-0.6187,-1.3077,0.9892,1.753
1.051682,-0.6212,-1.3859,0.9823,1.809
1.056128,-0.7653,-1.3569,0.8800,1.789
1.060821,-0.8115,-1.1776,0.8545,1.666
1.066772,-0.6546,-1.0343,0.8172,1.472
1.070805,-0.5657,-0.8985,0.7036,1.274
1.076082,-0.4675,-0.7846,0.7433,1.178
1.081368,-0.3595,-0.7099,0.7329,1.082
1.085959,-0.2412,-0.6961,0.8521,1.126
1.091201,-0.2393,-0.7601,1.0624,1.328
1.095133,-0.1753,-0.8568,1.1417,1.438
1.099603,-0.1916,-0.7832,1.0521,1.326
1.105284,-0.1996,-0.5229,0.8012,0.977
1.110271,-0.0476,-0.5086,0.6398,0.819
1.115123,0.0708,-0.7772,0.6268,1.001
1.119243,0.0880,-1.0355,0.6326,1.217
1.123719,0.0174,-0.9665,0.1763,0.983
1.129411,-0.0336,-0.5534,-0.4713,0.728
1.137470,0.1110,-0.1011,-0.8556,0.869
1.139603,0.2942,0.0692,-0.9697,1.016
1.143791,-0.0954,0.1240,-1.0183,1.030
1.148792,-0.7289,-0.8473,-0.3592,1.174
1.153269,-0.1328,-1.8617,1.0942,2.164
1.158145,0.0814,-2.3820,2.2724,3.293
1.163061,-0.5229,-4.9999,2.8757,5.792
1.168182,-0.5679,-7.0930,2.4780,7.535
1.172111,3.1369,3.7327,0.4353,4.895
1.178171,-1.2922,6.9129,-3.4923,7.852
1.183359,-2.7992,5.5871,-4.5318,7.719
1.187479,-0.8689,1.0398,-4.3224,4.530
1.191608,0.7797,-0.8551,-4.3855,4.536
1.197276,0.1634,-0.2724,-2.9977,3.014
1.201962,-0.2351,0.1234,-1.4864,1.510
1.206547,0.2293,0.4698,-1.0822,1.202
1.211259,-0.1729,0.2906,-0.5981,0.687
1.216525,-0.7925,0.0545,0.0753,0.798
1.220823,-1.2616,-0.2977,0.5049,1.391
1.225243,-1.7068,-0.7441,0.4834,1.924
1.231067,-2.1215,-1.1291,0.3222,2.425
1.235855,-2.5264,-1.3459,0.2445,2.873
1.241026,-2.9481,-1.3298,-0.0887,3.235
1.244455,-3.2870,-1.2145,-0.5142,3.542
1.252666,-3.6093,-1.1091,-0.9569,3.895
1.257790,-3.6375,-1.0457,-1.2226,3.977
1.260030,-2.9310,-0.9768,-0.8589,3.207
1.264156,-2.4834,-1.1279,-1.2841,3.015
1.269423,-2.2598,-1.2487,-1.9883,3.259
1.273556,-2.4356,-1.3241,-1.8976,3.359
1.278909,-2.3500,-1.4919,-2.0444,3.454
1.285297,-2.3248,-1.6270,-1.6395,3.277
1.288306,-2.3442,-1.6993,-1.0403,3.077
1.294327,-2.8914,-1.7836,0.1401,3.400
1.298660,-2.3306,-1.8873,0.2379,3.008
1.302883,-1.7585,-1.5352,-0.4082,2.370
1.307898,-1.9529,-1.9593,-0.1539,2.771
1.312652,-2.0166,-2.6121,0.1224,3.302
1.317700,-0.6233,-3.3790,0.1333,3.439
1.322974,-0.4730,-3.5500,0.3375,3.597
1.327638,-0.8576,-3.5369,0.4185,3.663
1.331569,-1.4029,-3.0085,0.2916,3.332
1.337408,-2.1621,-2.4530,-0.0449,3.270
1.341766,-2.9300,-2.6466,-0.7227,4.014
1.346954,-3.7994,-2.8207,-0.6164,4.772
1.352416,-4.5800,-3.1083,-0.2606,5.541
1.359222,-5.1727,-3.5705,-0.1609,6.287
1.360860,-5.1572,-4.1915,-0.1296,6.647
1.365978,-4.4795,-4.9670,-0.1845,6.691
1.370504,-4.5308,-5.4843,-0.5631,7.136
1.376088,-4.9510,-6.0555,-1.0064,7.886
1.379922,-5.3139,-6.4642,-1.3558,8.477
1.384777,-5.3066,-6.6650,-1.4588,8.644
1.390115,-4.8036,-6.6864,-1.5383,8.376
1.396764,-4.0616,-6.6290,-1.6287,7.943
1.399417,-3.1544,-6.4669,-1.7363,7.402
1.404395,-2.3264,-6.1634,-2.0567,6.901
1.409273,-1.1248,-5.6353,-2.6078,6.310
1.415147,1.1056,-4.8366,-3.5131,6.079
1.421798,2.6336,-4.2554,-4.2074,6.538
1.433452,3.3500,-3.8611,-4.1236,6.568
1.433788,3.0070,-3.5026,-3.6011,5.855
1.433971,2.7706,-3.0695,-2.5694,4.868
1.440612,2.9792,-2.4995,-1.0991,4.041
1.447312,3.5363,-1.8628,0.5988,4.041
1.447586,4.1658,-1.5321,1.8730,4.818
1.452938,4.7624,-1.6645,2.9456,5.842
1.457343,5.0860,-2.1781,3.5601,6.579
1.462043,5.1115,-2.8625,3.9393,7.060
1.467291,4.7371,-3.4895,4.0557,7.146
1.471789,4.4713,-3.9512,3.7168,7.030
1.476669,4.1455,-4.2387,3.2863,6.779
1.481435,3.6709,-4.4614,2.9901,6.505
1.486749,3.2842,-4.6087,2.8280,6.326
1.491572,2.8932,-4.6892,2.5833,6.085
1.496540,2.4961,-4.7579,1.8099,5.670
1.500693,2.2118,-4.7318,0.8344,5.289
1.505675,2.1075,-4.4561,0.0335,4.929
1.510957,2.2889,-4.0975,-0.6052,4.732
1.516829,2.6459,-3.8293,-1.0428,4.770
1.520664,3.1017,-3.2713,-1.4356,4.731
1.525142,3.5716,-2.7181,-1.8059,4.838
1.530248,3.9279,-2.0873,-2.3830,5.046
1.537053,4.1074,-1.5294,-2.9213,5.267
1.541725,4.1263,-1.0032,-3.3565,5.413
1.545028,3.8819,-0.8257,-3.4493,5.258
1.549857,3.4107,-1.0417,-3.2864,4.850
1.554544,3.0209,-1.3766,-3.1754,4.594
1.559220,2.9413,-1.3879,-3.1124,4.502
1.564090,3.1156,-1.1213,-3.0361,4.492
1.568905,3.3202,-0.9939,-2.8698,4.500
1.574139,3.5039,-0.8707,-2.7556,4.542
1.579158,3.7862,-0.4699,-2.5845,4.608
1.583605,3.9296,-0.0539,-2.4050,4.607
1.588637,3.9032,0.1273,-2.3411,4.553
1.593107,3.7200,-0.0141,-2.1545,4.299
1.597629,3.5124,-0.2873,-1.6972,3.911
1.603353,3.3670,-0.6770,-1.1488,3.621
1.607747,3.3580,-1.0846,-0.7305,3.604
1.612528,3.2988,-1.5131,-0.2522,3.638
1.618065,3.1870,-1.7996,0.1164,3.662
1.621760,3.0607,-1.9581,0.2421,3.642
1.627040,2.9480,-1.9843,0.3790,3.574
1.631211,3.0439,-1.6753,0.2978,3.487
1.636313,3.1249,-1.2863,-0.0632,3.380
1.641733,3.1840,-0.8814,-0.1624,3.308
1.646391,2.9974,-0.7709,0.0292,3.095
1.655518,2.4640,-1.0263,0.3997,2.699
1.656290,1.7619,-1.0765,1.0856,2.333
1.662254,1.3416,-0.7435,1.8116,2.374
1.665852,0.8113,-0.9028,2.1320,2.453
1.670797,-0.0981,-1.8548,1.9256,2.675
1.675401,-1.0577,-2.6115,0.5185,2.865
1.679731,-1.0271,-2.2962,-0.1147,2.518
1.684704,-0.6244,-2.1034,-0.9641,2.397
1.689589,0.5424,-0.9866,-1.3157,1.732
1.694348,2.0789,-0.2088,-1.6327,2.652
1.699166,3.1742,0.0344,-1.5159,3.518
1.704133,3.4696,-0.0833,-1.2221,3.680
1.708610,3.1906,-0.2977,-2.2508,3.916
1.713610,2.8270,-0.5878,-2.8585,4.063
1.718590,2.5778,-0.9350,-2.6641,3.823
1.723181,1.9802,-1.6709,-2.1933,3.395
1.727966,1.2102,-1.9840,-1.9927,3.061
1.733002,0.5103,-1.8645,-2.2932,2.999
1.748665,0.0715,-1.1193,-1.5202,1.889
1.749271,-0.2529,-0.5729,-1.5308,1.654
1.749446,-0.1937,-0.1005,-1.7067,1.721
1.752462,0.2477,0.2383,-1.1292,1.180
1.761241,0.8192,0.6368,-0.0982,1.042
1.762177,1.6322,1.1826,-0.9454,2.226
1.768805,2.5138,2.0512,-1.5954,3.615
1.774472,3.2340,3.1060,-2.2350,5.010
1.778833,3.7641,3.9459,-2.9637,6.207
1.786102,3.9850,4.4102,-3.4319,6.864
1.797935,3.8087,4.4498,-3.6983,6.927
1.798697,3.6621,4.0626,-3.7259,6.618
1.799114,3.8049,3.0524,-4.3787,6.555
1.805112,4.1585,2.0222,-5.1204,6.899
1.834124,4.3580,0.8585,-6.3572,7.755
1.834734,4.4166,-1.0818,-6.4368,7.881
1.835097,4.1111,-2.7782,-4.6073,6.771
1.835446,3.8492,-3.5099,-3.1171,6.071
1.835801,3.6032,-3.5757,-1.2320,5.224
1.836154,3.1155,-3.5214,0.5267,4.731
1.836406,2.2151,-3.5755,1.7005,4.537
1.839434,1.0781,-3.6512,3.3657,5.082
1.844489,-0.1447,-3.6545,4.8531,6.077
1.848849,-1.2072,-3.7587,4.6716,6.116
1.862179,-2.1325,-3.9424,3.5629,5.726
1.863105,-3.1642,-4.0257,2.2570,5.596
1.863768,-4.0223,-4.0725,0.8127,5.781
1.875066,-4.3772,-4.2946,-0.8527,6.191
1.875838,-4.5795,-4.6435,-2.6787,7.050
1.877821,-4.3535,-3.9169,-4.3155,7.275
1.882875,-4.3172,-3.8453,-5.5379,8.006
1.887651,-4.8504,-4.1997,-6.7827,9.336
1.892385,-4.4079,-3.2049,-6.3623,8.377
1.897313,-3.1419,-1.7112,-7.5820,8.384
1.902507,-1.8315,-1.0822,-7.7683,8.054
1.906968,-0.3808,-1.6684,-6.2339,6.464
1.912176,0.8127,-2.4671,-5.6310,6.201
1.917243,1.3901,-2.5964,-5.6919,6.409
1.921633,1.2805,-1.7524,-5.6775,6.078
1.926242,0.9078,-0.4095,-5.3397,5.432
1.931660,0.6745,0.6560,-4.2746,4.377
1.936310,2.1946,2.8154,-2.9117,4.607
1.941065,3.9935,4.1202,-2.1088,6.113
1.946111,4.5386,3.6030,-2.1327,6.175
1.951128,3.9122,1.3594,-1.4357,4.383
1.955710,2.0672,-1.7942,0.3911,2.765
1.960470,-0.1102,-4.5241,1.4886,4.764
1.965881,-2.2553,-6.2228,2.2116,6.979
1.970154,-3.7577,-6.4078,2.5769,7.863
1.975202,-4.8760,-5.6920,3.1063,8.113
1.979753,-5.5089,-5.8320,4.0729,8.997
1.984774,-5.5776,-5.3130,4.4408,8.891
1.990245,-4.8888,-4.1349,5.1773,8.234
1.994087,-3.4151,-2.8535,5.2529,6.885
1.998895,-2.1494,-2.2725,5.1430,6.020
2.005301,-1.2458,-2.8662,4.4135,5.408
2.008467,-0.2278,-2.9229,4.0399,4.992
2.014056,0.7247,-2.7436,4.0647,4.957
2.026593,1.2133,-2.9519,3.7072,4.892
2.027539,0.8447,-3.7978,3.4337,5.189
2.028142,-0.3954,-4.9851,3.5478,6.131
2.032951,-1.8541,-5.6924,4.1142,7.264
2.037660,-3.0794,-5.8288,4.2772,7.858
2.042645,-4.3885,-6.2259,4.1664,8.682
2.047391,-5.8015,-6.5820,3.9088,9.605
2.052363,-7.0356,-7.1128,3.2627,10.523
2.056961,-7.6806,-7.7652,2.5718,11.221
2.061980,-7.2667,-7.2336,2.0127,10.449
2.066635,-6.2533,-5.9062,1.4883,8.729
2.071674,-5.9377,-5.6394,0.7590,8.224
2.076357,-4.7354,-4.4157,1.1692,6.579
2.081192,-2.7263,-3.0188,1.1452,4.226
2.085971,-0.5958,-1.6525,0.9103,1.978
2.091079,1.3831,-0.5091,1.0542,1.812
2.095667,3.3902,0.3627,1.3093,3.652
2.100715,4.9958,0.8460,1.4491,5.270
2.105812,5.7897,1.1620,1.8681,6.194
2.110285,5.5076,2.4243,3.1739,6.803
2.115263,5.0555,3.6053,3.3175,7.040
2.119891,4.4677,4.2595,3.1773,6.943
2.124831,3.9668,4.8283,2.8021,6.848
2.129876,3.2951,5.2653,1.9080,6.498
2.136170,2.7826,5.9961,-0.4858,6.628
2.141488,3.1786,6.6839,-4.1523,8.486
2.144878,4.3206,7.3133,-7.1635,11.112
2.153019,5.6338,7.4404,-9.6167,13.401
2.154275,6.4877,7.0849,-10.8543,14.495
2.158450,6.4731,6.5589,-10.3953,13.892
2.163359,6.0500,6.1025,-9.0394,12.472
2.168179,5.4606,5.5325,-7.6056,10.875
2.172915,4.6729,4.7667,-6.5660,9.363
2.177820,3.6529,3.6805,-5.6612,7.677
2.182584,2.6732,2.3719,-4.6583,5.871
2.187522,1.6125,1.1071,-4.2076,4.640
2.192547,0.4764,-0.1875,-4.0050,4.038
2.197096,-0.6927,-1.2453,-3.5693,3.843
2.201943,-1.1799,-1.2326,-2.9174,3.380
2.212478,-2.1763,-1.9703,-2.2158,3.678
2.213370,-3.0093,-2.4248,-1.6290,4.194
2.221088,-3.6995,-2.5549,-1.7438,4.822
2.221826,-2.7961,-2.0917,-2.9571,4.576
2.226158,-2.6390,-1.6498,-4.3416,5.342
2.230929,-0.6457,-0.5528,-4.6834,4.760
2.235862,1.4845,0.6611,-4.8894,5.152
2.241171,3.0867,1.6569,-5.4531,6.481
2.245635,2.4734,1.8917,-4.5258,5.494
2.260147,1.9667,1.6613,-2.8986,3.877
2.261223,4.2513,1.9668,-1.3384,4.872
2.262552,6.8072,2.2423,-0.3839,7.177
2.268244,7.5500,2.9391,-0.1249,8.103
2.273078,6.4566,3.1867,0.9583,7.264
2.274459,4.5401,2.8570,0.6811,5.407
2.284025,1.6581,1.9136,-1.2750,2.835
2.284588,0.7730,0.7601,-1.6286,1.956
2.289687,0.0737,0.3102,-1.5809,1.613
2.295344,0.0589,-2.2027,1.5159,2.675
2.298848,1.1612,-17.6075,18.0985,25.277
2.303883,0.1534,-8.6256,11.6265,14.478
2.308688,0.5416,-1.9952,2.8078,3.487
2.315357,1.1334,1.1093,-5.4016,5.630
2.317980,3.8214,0.1357,-8.3472,9.181
2.323659,4.0382,-0.9560,-4.0822,5.821
2.327702,1.5167,-0.7575,0.8523,1.898
2.332437,-1.3531,0.4769,1.9749,2.441
2.337429,-6.4945,0.4933,2.8562,7.112
2.342276,-6.9125,0.1832,1.3832,7.052
2.347067,-6.0202,-0.8106,-1.0742,6.169
2.351991,-4.5664,-1.7667,-3.1899,5.844
2.356708,-3.1666,-2.6400,-4.4210,6.045
2.361477,-2.9011,-3.0624,-3.9658,5.790
2.366847,-2.5699,-3.0759,-2.8821,4.937
2.371119,-2.6281,-2.8660,-2.3296,4.533
2.375954,-1.8916,-2.5890,-0.0990,3.208
2.381236,0.6621,-1.4496,2.6413,3.085
2.385676,2.4194,-0.5101,4.3872,5.036
2.390478,3.2077,0.4036,4.7735,5.765
2.395778,3.1117,0.6369,3.5924,4.795
2.400310,4.8876,0.5660,2.0557,5.332
2.405890,5.4119,0.5684,1.5885,5.669
2.410171,4.7578,1.0421,2.3314,5.400
2.414575,4.5850,1.2508,2.6518,5.442
2.420527,3.8854,0.3355,2.8040,4.803
2.425414,3.0751,-0.9653,3.0035,4.406
2.432574,2.0066,-2.2270,2.5070,3.908
2.451032,0.2146,-2.3839,2.7922,3.678
2.451428,-0.8226,-1.6596,1.3017,2.264
2.452645,0.2883,-1.4834,-0.6747,1.655
2.461385,1.4440,-0.8817,-0.2264,1.707
2.461780,3.5476,-0.1343,-1.8354,3.996
2.464427,0.5732,1.2881,-1.8801,2.350
2.471752,-1.3172,3.0438,-2.5776,4.200
2.472484,-7.6722,3.7471,-9.1759,12.534
2.474093,-11.6502,2.4669,-2.9146,12.260
2.479045,-0.8448,2.7525,1.0913,3.079
2.482690,7.3338,2.1882,4.1188,8.691
2.487147,7.5448,1.9888,4.3411,8.929
2.492045,3.0999,2.3835,1.0342,4.045
2.496984,0.9094,2.6097,0.1248,2.766
2.501653,1.5308,1.6918,-0.5927,2.357
2.506628,1.2231,1.2386,-0.9535,1.985
2.512715,0.7447,1.4381,-0.4629,1.684
2.516622,1.5451,1.8427,-1.8596,3.040
2.521340,0.2218,3.9541,-0.8304,4.046
2.526075,0.4274,5.7191,-0.7540,5.784
2.530649,1.3216,7.1706,0.2242,7.295
2.535593,2.6527,9.0437,1.2306,9.505
2.540872,2.0767,8.7161,-0.2442,8.963
2.545286,0.5523,7.4858,-1.1861,7.599
2.550165,-0.4919,6.1745,-1.9068,6.481
2.556337,-0.8314,5.6462,-0.0486,5.707
2.560147,-1.1764,4.6630,-0.9612,4.904
2.564612,4.7327,-7.8894,8.9776,12.855
2.570043,1.2741,-22.8122,6.8948,23.865
2.574223,-8.0664,-21.1095,-4.7540,23.093
2.579277,-7.6409,-15.1376,-2.6036,17.155
2.584095,-6.3968,-6.9480,-0.9422,9.491
2.588797,-1.8667,-1.9470,-1.3539,3.018
2.593653,0.9930,-0.1873,-0.6817,1.219
2.598634,1.2685,-0.7877,-0.0368,1.494
2.603382,1.2400,-1.7246,0.2636,2.140
2.608026,0.4476,-1.2210,0.5378,1.407
2.612934,0.3170,1.4841,0.2695,1.541
2.617498,2.3296,0.9395,-0.1008,2.514
2.623048,1.6980,0.7431,0.0813,1.855
2.627397,0.8690,1.1377,0.1819,1.443
2.632388,0.3062,1.2829,0.1890,1.332
2.637107,-0.2773,1.6844,0.0193,1.707
2.642097,-0.0011,2.3555,-0.5670,2.423
2.646863,-0.0547,2.0491,-1.4236,2.496
2.651548,-0.0110,1.2152,-2.0530,2.386
2.656392,-0.2129,-0.4221,-2.1496,2.201
2.661956,-0.0933,-1.5330,-1.2085,1.954
2.666891,0.8440,-1.8214,-0.5356,2.078
2.671277,1.3249,-1.5253,-0.4663,2.073
2.675682,2.0420,-0.8750,-1.4260,2.640
2.680756,2.5166,-0.4325,-1.1765,2.811
2.685818,4.1018,0.4459,-1.1676,4.288
2.691072,2.9734,-0.2205,-1.0609,3.165
2.695116,3.0474,0.9330,0.1334,3.190
2.700222,2.0620,1.4214,1.8732,3.127
2.704638,-0.0090,-0.4285,3.1511,3.180
2.710401,-0.1021,-1.5580,2.7853,3.193
2.714981,0.6347,-1.1670,2.3066,2.662
2.720230,1.0236,-0.9191,1.4590,2.005
2.724205,0.2460,-0.6795,0.3899,0.821
2.730294,-0.7665,0.0831,0.0423,0.772
2.734037,-1.0301,0.2517,-0.1104,1.066
2.738891,-1.6100,-0.1658,0.7685,1.792
2.744192,-1.4594,-0.1977,1.5919,2.169
2.748415,-2.1017,-1.1856,1.8088,3.016
2.753095,-3.0368,-2.2890,1.3657,4.041
2.757896,-3.8765,-1.9656,2.4762,5.002
2.762714,-2.9963,-1.1474,2.7506,4.226
2.767741,-1.7382,-0.6908,2.8919,3.444
2.773284,-0.9490,-0.1644,2.0885,2.300
2.777044,-0.4035,0.9776,1.0847,1.515
2.782111,0.2256,0.7791,0.2377,0.845
2.786936,0.3028,1.0469,0.0529,1.091
2.791681,-0.1866,1.3145,-0.5369,1.432
2.796464,-0.7072,0.9695,-0.7411,1.410
2.801646,-1.1492,0.5814,-0.4834,1.376
2.806181,-0.8900,0.0738,-0.2382,0.924
2.810934,-0.7054,-0.5866,0.3045,0.967
2.815998,-0.2711,-0.9306,0.7649,1.235
2.820642,-0.0761,-1.0350,1.2540,1.628
2.826677,-0.6078,-0.1395,1.0637,1.233
2.832070,-0.3442,0.0473,0.7603,0.836
2.835405,-0.2119,-0.5022,0.3607,0.654
2.840493,-0.3239,-1.1055,0.1519,1.162
2.846315,-0.2116,-1.1263,-0.0504,1.147
2.850434,-0.3779,-1.0577,0.1469,1.133
2.854657,0.6851,-1.1891,0.8101,1.594
2.861010,0.3699,-1.0183,0.0511,1.085
2.867274,0.5822,-0.4695,0.1875,0.771
2.871655,-1.4359,0.4551,-1.8021,2.349
2.874586,-1.6232,1.0377,-2.0067,2.782
2.880754,-2.1553,1.0877,-2.9759,3.832
2.883656,-3.2350,0.5773,-3.5723,4.854
2.888465,-2.8101,-0.1979,-3.7166,4.664
2.893507,-1.5792,0.2921,-3.4478,3.803
2.898253,3.0484,2.8729,0.6576,4.240
2.903204,4.6000,1.5421,2.3106,5.374
2.907693,6.3547,5.4871,3.7884,9.211
2.912790,2.1330,3.9332,2.7789,5.267
2.917453,1.3775,4.0979,-0.1459,4.326
2.922814,0.5182,1.2787,0.2544,1.403
2.926926,-2.6260,-5.0106,1.3769,5.822
2.932710,-1.6636,-4.5445,0.9272,4.927
2.937091,-0.3104,-2.5992,-0.0932,2.619
2.941548,-0.2749,-1.9812,-0.1075,2.003
2.946581,-0.9976,-2.1147,-0.2724,2.354
2.951527,-1.2094,-1.3803,-0.2473,1.852
2.957552,0.1298,-0.6948,0.2265,0.742
2.961364,1.0586,-0.0608,0.7640,1.307
2.965912,0.7291,0.8423,0.6614,1.296
2.972416,0.1438,2.4948,-0.0491,2.499
2.975809,-0.5521,2.2128,0.1034,2.283
2.980861,0.9647,2.1387,0.5810,2.417
2.985872,-0.9613,2.0860,-0.3347,2.321
2.991569,-2.4956,0.6489,0.2419,2.590
2.995486,-1.9743,-0.0452,-0.1479,1.980
3.001274,-0.5729,-0.7792,0.9585,1.362
3.005050,0.2838,-1.7035,1.1333,2.066
3.010170,0.4323,-1.7157,0.3815,1.810
3.015222,0.5586,-1.5794,0.1168,1.679
3.019852,-0.2410,-1.1277,-0.5399,1.273
3.024101,-0.7921,-0.7243,-0.1087,1.079
3.028991,-0.9123,-1.2062,0.4560,1.580
3.035539,-0.4942,-1.6133,0.8238,1.878
3.038699,-0.3458,-1.0588,0.7964,1.369
3.043681,-0.2939,-0.4333,0.6646,0.846
3.048298,-1.0760,-0.6457,0.6188,1.399
3.063285,0.4828,0.6581,0.6352,1.034
3.064065,1.3018,0.8627,0.6950,1.709
3.064698,0.4474,-0.0497,0.4194,0.615
3.067309,1.3060,1.5333,-0.2313,2.027
3.072625,-0.1199,1.8684,-1.2148,2.232
3.077002,-0.9936,1.9423,-0.5567,2.252
3.081928,-0.7169,2.6882,-1.1065,2.994
3.086459,-0.9476,1.4100,-1.5236,2.282
3.092003,-0.1726,0.9344,-0.0973,0.955
3.097038,0.4240,0.0888,-0.5661,0.713
3.101520,0.4511,-0.2895,-0.0998,0.545
3.106447,0.7211,0.2772,0.5175,0.930
3.111099,-0.3957,-0.4431,0.0999,0.602
3.116747,0.3329,-0.7226,0.1950,0.819
3.120824,0.4653,-1.1140,0.4323,1.282
3.125421,0.2823,-1.2371,0.5517,1.384
3.131490,0.0636,-1.0588,0.4099,1.137
3.135531,0.3536,-1.3828,0.6057,1.551
3.140267,0.3728,-0.8290,0.8039,1.213
3.144801,0.1535,-0.2376,0.4749,0.553
3.150220,0.5745,0.5371,0.1117,0.794
3.154691,0.1533,1.1483,-0.2429,1.184
3.159545,-0.4455,1.1730,0.7486,1.461
3.165227,0.3484,1.9868,-0.3751,2.052
3.169428,0.1405,1.3888,-0.4147,1.456
3.174265,0.1397,1.0999,-0.3206,1.154
3.179376,0.0045,0.5338,-0.4413,0.693
3.183706,0.2604,-0.0267,-0.1459,0.300
3.188400,0.7885,-2.6595,0.0735,2.775
3.193461,-0.1953,-0.9540,0.8161,1.271
3.198163,-1.0844,2.4089,-1.6098,3.094
3.202903,-0.7553,-2.1254,0.3921,2.289
3.208673,0.1972,-1.4248,0.1970,1.452
3.214512,0.1015,-0.9881,0.2025,1.014
3.217745,0.0699,-1.5013,0.5975,1.617
3.224224,0.1403,0.2551,-0.0405,0.294
3.227520,0.5509,-0.0354,-0.1332,0.568
3.232027,0.5992,0.5684,-0.1239,0.835
3.236800,-0.0432,0.6140,0.1098,0.625
3.242032,-0.1027,0.1859,1.0906,1.111
3.247434,-0.0602,-0.7200,1.2204,1.418
3.251543,0.0235,-1.9188,2.0899,2.837
3.256039,-0.3351,-1.7409,1.6485,2.421
3.261580,-0.4402,-1.4838,1.4430,2.116
3.266064,0.8796,1.5132,2.9403,3.422
3.270846,-1.3598,-0.7848,-0.6870,1.714
3.276236,-1.2127,-1.7695,1.4529,2.591
3.282929,-0.1528,0.1739,0.7243,0.760
3.285409,0.5597,-0.1830,-0.0223,0.589
3.291674,1.4740,1.4641,0.2804,2.096
3.295309,0.6570,-0.8941,-0.7527,1.341
3.299928,-1.9080,-5.5951,1.3641,6.067
3.305249,1.7348,1.3324,0.0525,2.188
3.311287,0.5319,-1.1337,-0.2420,1.275
3.314533,0.9678,-1.9355,0.2335,2.177
3.318977,0.4608,-1.4026,-0.0813,1.479
3.324127,0.5658,-0.9049,-0.4631,1.163
3.328657,1.0660,-1.5447,-0.5567,1.958
3.334007,0.7795,-1.8454,-0.3463,2.033
3.338745,0.1580,-2.3217,-0.5442,2.390
3.342828,0.4836,-2.3446,-1.4667,2.808
3.347899,0.0969,-1.7911,0.9001,2.007
3.353576,0.3772,-2.8184,-0.3906,2.870
3.357580,1.2925,-2.9165,0.5859,3.243
3.362826,0.3658,-3.4430,0.5355,3.504
3.367615,0.7274,-2.9055,1.1178,3.197
3.372837,1.4613,-0.6806,0.7299,1.770
3.377066,2.2512,0.5355,-0.2173,2.324
3.382218,2.2712,1.1515,0.5254,2.600
3.386714,0.7348,1.2605,0.5752,1.568
3.391481,0.0160,2.1684,0.1031,2.171
3.397868,-0.5580,3.1432,0.6242,3.253
3.401300,-1.6406,3.1734,1.3524,3.820
3.406324,-2.1219,2.9069,2.2815,4.261
3.411138,-2.1569,3.1140,3.0307,4.851
3.415611,-2.0010,2.9420,2.9348,4.612
3.420710,-2.5882,2.8865,2.1269,4.422
3.426665,-1.6694,1.3056,1.3570,2.517
3.431691,0.8883,-0.3850,1.6247,1.891
3.435747,1.5426,-0.1113,2.1027,2.610
3.440737,-0.1841,0.9571,0.0034,0.975
3.444789,1.9237,1.4927,-1.4486,2.833
3.451782,0.3131,0.6209,-0.4386,0.822
3.454556,0.4004,1.7580,-0.5488,1.885
3.459969,-0.0345,0.3739,0.0151,0.376
3.465380,0.0961,2.0734,-0.6706,2.181
3.470241,-0.7191,3.7340,-0.9620,3.922
3.474644,-2.3810,2.4809,-1.6030,3.794
3.478470,-0.4530,1.5221,-1.9849,2.542
3.483670,-0.2149,0.9098,-1.4251,1.704
3.488822,-0.2060,1.2271,-1.3378,1.827
3.493446,-0.3120,2.5821,-1.2067,2.867
3.498609,-1.1972,4.8858,-1.5137,5.253
3.503485,0.4372,3.6811,0.5788,3.752
3.508002,0.2720,1.2204,-0.1479,1.259
3.513471,1.3391,-0.1068,0.7592,1.543
3.517207,1.4272,-1.0099,-1.0145,2.021
3.522979,0.7869,-2.1449,-0.8521,2.438
3.527004,0.3222,-2.9683,-0.5300,3.032
3.531708,0.4987,-3.2031,-0.0665,3.242
3.536828,0.4497,-2.6084,-0.4608,2.687
3.541929,0.3341,-0.4686,-1.0670,1.212
3.546259,-0.4714,-1.0182,-0.5186,1.236
3.551493,-0.6072,-1.3451,0.0921,1.479
3.556245,0.0807,-0.3160,0.4558,0.561
3.561721,0.1926,0.0682,0.8054,0.831
3.566257,0.7362,-1.8659,1.2667,2.372
3.571067,0.1139,1.5694,1.7638,2.364
3.575882,-1.2643,0.3685,0.7684,1.525
3.580269,1.1510,-1.2187,1.5220,2.264
3.585556,1.0988,-1.6659,1.7154,2.632
3.590626,0.3635,-0.7325,1.4319,1.649
3.595370,0.3051,-0.0225,0.4924,0.580
3.600108,0.4160,-0.0688,0.0359,0.423
3.604240,0.3650,-0.4781,-0.1157,0.613
3.611071,0.4925,0.1731,-0.2096,0.563
3.620688,0.7653,0.0472,0.2050,0.794
3.621379,-0.4906,-0.6326,0.0299,0.801
3.624062,-2.5224,0.6107,-3.5103,4.365
3.629828,0.4886,1.3683,-1.1697,1.865
3.633317,3.7022,1.6013,-2.5177,4.755
3.640196,-0.6670,-1.0077,0.8820,1.496
3.643451,-2.6570,-3.1806,-1.2083,4.317
3.648133,-1.8900,-3.2807,0.6658,3.844
3.653615,-2.6385,-2.8472,0.7579,3.955
3.657767,-3.1191,-0.8990,0.6577,3.312
3.662687,-1.6842,0.7399,1.5334,2.395
3.667477,-1.8270,2.1195,1.6376,3.242
3.672563,1.2823,0.4431,1.2163,1.822
3.677205,-1.1954,-0.3830,-0.3251,1.297
3.681843,0.2913,0.5585,1.2686,1.416
3.686972,0.8107,-0.0711,2.1179,2.269
3.693263,0.3243,-0.9760,0.7846,1.294
3.696691,0.5748,-0.1946,-0.0186,0.607
3.701082,0.4875,0.9679,-0.7464,1.316
3.706492,0.2973,1.1312,-1.0210,1.553
3.710812,0.3989,0.7223,-0.6773,1.067
3.715861,0.5360,0.2512,-0.2826,0.656
3.721196,0.4799,0.0435,-0.1146,0.495
3.726775,0.4143,0.1804,0.0538,0.455
3.730311,0.0895,0.1284,0.0365,0.161
3.734860,-0.4843,-0.4582,0.3801,0.767
3.740720,-0.7812,-1.0629,0.9615,1.632
3.745046,-1.4208,-1.9672,1.1059,2.667
3.753030,-0.2020,-0.5868,0.2133,0.656
3.754368,-0.0058,0.7536,0.1408,0.767
3.759388,0.2716,1.2100,-0.2398,1.263
3.763688,0.0879,0.7498,-0.2884,0.808
3.768797,0.1698,-0.0475,0.1172,0.212
3.774082,0.1639,-0.6439,0.4740,0.816
3.778007,0.2536,-0.5324,0.5220,0.788
3.782860,0.1289,-0.3256,0.5537,0.655
3.787766,-0.0509,-0.2744,0.4725,0.549
3.793374,-0.2231,-0.1223,0.2879,0.384
3.798694,-0.2823,0.1617,0.1122,0.344
3.803251,-0.3187,0.1683,-0.0255,0.361
3.807340,-0.1950,0.0433,0.0358,0.203
3.813482,0.0541,-0.1152,1.1401,1.147
3.817602,-0.0366,-0.2879,0.0451,0.294
3.822192,0.1866,-0.0565,0.2489,0.316
3.826913,-0.0982,-0.8581,0.0992,0.869
3.833598,0.2990,-0.0088,1.1234,1.162
3.837103,-0.6662,0.8373,-1.0031,1.467
3.841638,0.2093,0.5775,0.1170,0.625
3.846519,-0.0302,-0.3158,0.2348,0.395
3.850954,-0.0713,-0.1844,0.0591,0.206
3.856489,-0.5734,-0.0365,0.4694,0.742
3.861094,-0.0443,-0.1680,-0.1521,0.231
3.865476,-0.2519,-0.3681,0.3097,0.543
3.871103,-0.7391,-0.5816,0.3523,1.004
3.876017,-0.5630,-0.4644,0.5445,0.911
3.880596,-0.2363,0.0855,0.2399,0.347
3.886437,0.0035,0.5098,0.1197,0.524
3.891470,0.3921,0.2321,0.3173,0.555
3.895259,0.4397,0.0015,0.1712,0.472
3.899246,0.5042,0.5626,0.1041,0.763
3.904942,-0.1265,0.2006,-0.5099,0.562
3.909858,-0.3339,-0.3139,0.6090,0.762
3.915190,-0.3953,-0.3328,0.8631,1.006
3.919848,-0.1554,-0.1244,0.6787,0.707
3.924131,-0.0307,-0.0884,0.4732,0.482
3.928477,-0.0233,-0.1386,0.2902,0.322
3.933298,-0.0491,-0.0549,0.1530,0.170
3.939363,-0.0436,0.0836,0.0542,0.109
3.943935,-0.0476,0.1072,0.0273,0.120
3.947927,-0.0396,0.0160,0.1152,0.123
3.952480,-0.0506,-0.0776,0.1985,0.219
3.958132,-0.0377,-0.0873,0.2480,0.266
3.962696,-0.0824,-0.0611,0.2831,0.301
3.967098,-0.0987,0.0034,0.1933,0.217
3.971553,-0.1226,0.0177,0.0844,0.150
3.978109,-0.0702,0.0393,0.1022,0.130
3.981570,-0.0780,0.0322,0.0656,0.107
3.986679,-0.2573,0.1165,0.0703,0.291
3.991276,-0.1723,0.0743,0.4066,0.448
3.995951,-0.0324,0.0106,-0.1772,0.180
4.000777,-0.1140,0.0359,-0.0606,0.134
4.006167,-0.1843,0.4032,0.2561,0.512
4.011216,-0.1312,-0.0504,0.2181,0.259
4.015628,0.0329,-0.4200,-0.2435,0.487
4.020807,0.2726,-0.2397,0.0884,0.374
4.025453,0.1879,-0.1722,0.1190,0.281
4.030139,0.0820,-0.0547,0.0630,0.117
4.035363,-0.0716,0.0387,0.0167,0.083
4.040168,-0.1292,0.0794,0.1333,0.202
4.045678,-0.1279,-0.0949,0.2945,0.335
4.049401,-0.2958,-0.6600,0.4789,0.867
4.054356,-0.6493,-0.9419,0.5085,1.252
4.059579,-0.7938,-0.7757,0.3356,1.159
4.064181,0.0293,0.5639,-0.1445,0.583
4.068808,0.2398,1.1383,-0.1381,1.171
4.074360,0.6510,0.7495,-0.2082,1.014
4.078623,0.4944,0.2052,-0.0449,0.537
4.083578,0.3322,-0.2448,0.2686,0.492
4.088081,-0.3783,-0.4406,0.2889,0.649
4.093145,-0.3660,-0.0717,0.2734,0.462
4.097473,-0.0874,0.1242,0.2420,0.286
4.103032,0.1045,0.0037,0.2257,0.249
4.107967,0.3143,-0.1433,0.2365,0.419
4.111960,0.1939,-0.1275,0.2017,0.308
4.116760,-0.0663,-0.0087,0.1352,0.151
4.123199,-0.3013,0.0818,0.0949,0.326
4.127418,-0.2832,0.1627,0.2027,0.384
4.132364,-0.1743,0.0714,0.1310,0.229
4.136746,-0.0098,-0.0607,0.1366,0.150
4.142291,0.1046,-0.0372,0.2600,0.283
4.146577,-0.0197,-0.0642,0.3168,0.324
4.151014,0.0213,-0.0739,0.3019,0.312
4.155664,-0.0759,-0.1144,0.2349,0.272
4.161755,-0.0753,-0.0785,0.2111,0.238
4.166120,-0.1372,-0.0189,0.1943,0.239
4.170084,-0.1001,0.0120,0.2173,0.240
4.176034,-0.2846,-0.0997,0.1878,0.355
4.180418,-0.1564,0.0436,0.2707,0.316
4.184540,0.0423,0.0621,0.2530,0.264
4.190181,-0.0102,-0.1141,0.1187,0.165
4.194596,-0.0749,-0.0988,0.0944,0.156
4.199353,-0.1819,0.0352,0.1084,0.215
4.204155,-0.0741,0.1253,0.1987,0.246
4.209533,0.0259,-0.0466,0.2212,0.228
4.213813,-0.0270,-0.1577,0.1885,0.247
4.218933,-0.0705,-0.0588,0.1443,0.171
4.224086,-0.0969,0.0464,0.0741,0.131
4.228339,-0.0325,0.0486,0.0827,0.101
4.232826,-0.0181,-0.0610,0.1078,0.125
4.238477,0.0034,-0.0653,0.1372,0.152
4.242647,0.0108,-0.0031,0.0734,0.074
4.247976,-0.0218,0.0087,0.0477,0.053
4.252639,-0.0110,-0.0059,0.0648,0.066
4.257582,0.0095,-0.0466,-0.0017,0.048
4.263709,0.0109,0.0294,-0.0111,0.033
4.267176,-0.0192,0.0906,0.0101,0.093
4.271571,-0.0802,0.0660,0.0497,0.115
4.277569,-0.0556,-0.0058,0.0793,0.097
4.281698,-0.0501,-0.0319,0.0920,0.109
4.286852,-0.0259,0.0064,0.0732,0.078
4.290864,-0.0139,0.0586,0.0520,0.080
4.296649,-0.0474,0.0464,0.0592,0.089
4.300572,-0.0687,-0.0180,0.0782,0.106
4.305676,-0.0547,-0.0366,0.1778,0.190
4.311218,-0.1056,-0.0596,0.2980,0.322
4.315937,-0.1166,-0.1256,0.2084,0.270
4.321250,0.1747,-0.1586,0.0515,0.241
4.325213,0.2751,-0.1252,0.0866,0.314
4.329750,0.0321,-0.0130,0.2706,0.273
4.334357,-0.3754,0.0831,0.3613,0.528
4.340111,-0.6371,0.0555,0.0298,0.640
4.344318,-0.4754,0.1751,0.0085,0.507
4.350605,0.0838,0.1340,0.2044,0.258
4.354558,0.3484,-0.1827,0.2660,0.475
4.358369,0.2438,-0.3332,0.1729,0.448
4.364052,0.0362,-0.2025,0.0548,0.213
4.368502,-0.0367,0.0577,-0.0212,0.072
4.374402,-0.0165,0.0973,0.1171,0.153
4.378883,-0.0825,-0.0152,0.1877,0.206
4.383077,-0.1034,-0.0553,0.2295,0.258
4.388212,-0.1007,-0.0144,0.2287,0.250
4.392546,-0.0338,-0.0213,0.2020,0.206
4.397759,-0.0119,-0.0568,0.2163,0.224
4.402080,0.0102,-0.0921,0.2241,0.242
4.408099,0.0444,-0.1224,0.2272,0.262
4.411873,0.0454,-0.0909,0.1498,0.181
4.426025,0.0063,-0.0194,0.0728,0.076
4.426819,-0.0328,0.0065,0.0650,0.073
4.427347,-0.0981,0.0062,0.0641,0.117
4.431325,-0.1444,0.0227,0.0842,0.169
4.436134,-0.1242,-0.0036,0.1158,0.170
4.441655,-0.0614,0.0178,0.1137,0.130
4.446168,-0.0112,0.0153,0.0281,0.034
4.451607,-0.0329,0.0438,0.0257,0.060
4.457210,-0.0690,0.0341,-0.0602,0.098
4.461492,-0.0572,0.0910,-0.0573,0.122
4.466736,0.0001,0.0689,0.0290,0.075
4.471058,0.0834,-0.0291,0.1216,0.150
4.475660,0.0140,-0.0835,0.1136,0.142
4.479372,-0.0504,-0.0068,0.0745,0.090
4.484874,-0.0768,0.0765,0.0189,0.110
4.490321,-0.0919,0.0762,0.0348,0.124
4.495336,-0.1294,0.0312,0.1239,0.182
4.500146,-0.1910,-0.0252,0.2167,0.290
4.503949,-0.1258,-0.0884,0.1925,0.246
4.508959,0.0493,-0.1561,0.1930,0.253
4.514300,0.1719,-0.1309,0.2323,0.317
4.517944,0.3330,-0.0660,0.3958,0.521
4.524062,-0.0834,-0.0161,-0.1037,0.134
4.528206,-0.1467,-0.1775,-0.6766,0.715
4.533268,0.0204,0.2181,-0.0494,0.225
4.538360,-0.2436,0.2140,-0.0233,0.325
4.543250,0.0337,0.0128,0.1307,0.136
4.547756,0.0454,-0.1583,0.2670,0.314
4.551799,0.0188,-0.0834,0.1648,0.186
4.557213,-0.0649,0.0551,0.0228,0.088
4.561817,-0.0864,0.0690,0.0010,0.111
4.567405,-0.0386,0.0329,0.0815,0.096
4.571446,-0.0194,-0.0647,0.1570,0.171
4.576663,0.0477,-0.1166,0.2369,0.268
4.581445,0.0098,-0.1252,0.2261,0.259
4.586203,-0.0185,-0.0459,0.1393,0.148
4.590985,-0.0801,0.0470,0.0342,0.099
4.595911,-0.0701,0.0609,0.0178,0.094
4.600758,-0.0124,-0.0038,0.0753,0.076
4.605581,-0.0215,-0.0300,0.1252,0.131
4.610243,0.0005,-0.0275,0.1249,0.128
4.614859,-0.0157,-0.0440,0.1031,0.113
4.621062,-0.0318,-0.0201,0.0530,0.065
4.624794,-0.0314,0.0275,0.0198,0.046
4.629714,-0.0167,0.0438,0.0414,0.063
4.633751,-0.0235,-0.0207,0.1243,0.128
4.639807,-0.1020,-0.1179,0.1964,0.251
4.644431,-0.1356,-0.1095,0.0944,0.198
4.648733,-0.1290,0.0533,0.0146,0.140
4.653313,-0.0104,0.1504,-0.0025,0.151
4.658687,0.0939,0.0115,0.0667,0.116
4.662666,0.1291,-0.1312,0.1427,0.233
4.667795,0.0930,-0.1042,0.0920,0.167
4.673161,-0.0190,0.0271,0.0465,0.057
4.677744,-0.0757,0.0553,0.0177,0.095
4.682046,-0.0918,-0.0021,0.0242,0.095
4.687938,-0.0793,0.0145,-0.0360,0.088
4.692256,-0.0101,0.0547,0.0066,0.056
4.696852,0.0086,-0.0098,0.0489,0.051
4.701958,-0.0011,-0.0002,0.0862,0.086
4.707023,-0.0011,-0.0098,0.0544,0.055
4.711484,0.0161,-0.0336,0.0300,0.048
4.717072,0.0481,-0.0931,0.0389,0.112
4.721809,0.0593,-0.0383,0.1313,0.149
4.726455,0.0807,-0.0911,0.2159,0.248
4.731209,0.0834,-0.1269,0.1148,0.190
4.735540,-0.0096,-0.0554,0.0645,0.086
4.741530,-0.0834,0.0181,0.0353,0.092
4.745723,-0.2094,0.1046,-0.0535,0.240
4.750817,0.1902,-0.0190,0.0075,0.191
4.756000,0.2796,-0.7387,0.3887,0.880
4.760146,0.4700,-0.6670,0.3679,0.895
4.765415,0.1211,-0.2719,0.0516,0.302
4.769855,-0.6071,-0.8622,-0.1728,1.069
4.774651,0.6818,0.6210,0.3146,0.974
4.780198,0.2239,1.1666,0.1407,1.196
4.784394,-0.6050,0.6619,-1.0418,1.375
4.789456,-0.3031,0.4758,-0.0233,0.565
4.793809,-0.3299,0.2363,0.2591,0.482
4.799909,0.0211,-0.3455,0.1458,0.376
4.803597,-0.0050,0.0632,-0.0820,0.104
4.809646,-0.0480,0.2621,0.3510,0.441
4.813045,-0.1937,-0.0936,0.0633,0.224
4.818270,-0.2679,-0.0329,-0.0789,0.281
4.823649,-0.1475,-0.1151,0.3777,0.421
4.827576,-0.2347,-0.2677,0.3112,0.473
4.833580,0.0244,-0.2716,0.2213,0.351
4.837858,-0.0965,0.1875,-0.0764,0.224
4.842340,-0.4531,0.0378,0.0548,0.458
4.847199,0.0074,0.3548,-0.3534,0.501
4.853020,-0.0509,0.2868,-0.0420,0.294
4.856738,0.0740,0.2028,-0.1890,0.287
4.861518,0.0152,-0.0730,-0.0527,0.091
4.866969,-0.0975,-0.0639,0.0377,0.123
4.871634,0.0840,0.0373,0.0587,0.109
4.876056,0.1346,0.0116,0.0805,0.157
4.881464,0.2288,-0.1283,0.1476,0.301
4.885733,0.1066,-0.1911,0.1337,0.256
4.891013,0.0856,-0.1158,0.1110,0.182
4.895694,0.0293,-0.0293,0.1434,0.149
4.901037,0.0118,-0.0623,0.1446,0.158
4.905137,-0.0152,-0.1045,0.0675,0.125
4.910490,-0.0593,-0.0322,0.0810,0.105
4.914605,-0.1275,0.0563,0.0349,0.144
4.920332,-0.1055,0.0683,0.0079,0.126
4.924885,-0.1364,0.0209,-0.0858,0.162
4.928867,-0.0677,-0.0142,-0.0343,0.077
4.934569,-0.0969,0.0223,-0.0806,0.128
4.939647,0.0213,-0.0104,-0.0100,0.026
4.944930,0.0987,0.0069,0.0225,0.101
4.948385,0.0478,-0.0331,0.0410,0.071
4.953396,0.0835,-0.1014,0.0811,0.154
4.958700,0.0572,0.0422,0.0026,0.071
4.963389,0.0173,0.0540,0.0560,0.080
4.967655,0.1042,-0.0556,0.2305,0.259
4.974601,-0.0281,0.0565,0.1758,0.187
4.978009,-0.0026,-0.0460,0.2143,0.219
4.982405,-0.0409,-0.1050,0.1124,0.159
4.987003,0.0185,-0.0733,0.0757,0.107
4.993289,-0.0246,-0.0965,0.0672,0.120
4.997104,-0.0389,0.0324,0.0659,0.083
5.001699,-0.0673,0.0534,0.1784,0.198
5.007390,-0.0743,0.0172,0.0088,0.077
5.012386,-0.0507,-0.0495,-0.1841,0.197
5.018297,-0.0559,-0.0253,-0.4209,0.425
5.021100,0.0351,0.1478,-0.2706,0.310
5.025534,0.2257,-0.0794,0.1339,0.274
5.030967,-0.0160,0.1513,0.0429,0.158
5.035641,-0.2204,-0.3582,0.1567,0.449
5.040751,-0.0520,-0.4576,0.3226,0.562
5.046000,0.0627,-0.1525,0.2762,0.322
5.051097,-0.0501,-0.0112,0.1067,0.118
5.054852,-0.2085,0.0272,-0.0221,0.211
5.060093,-0.2071,0.2767,-0.1999,0.399
5.064712,-0.0869,0.3390,-0.1215,0.370
5.069546,0.0689,0.0159,0.0255,0.075
5.074411,0.1318,-0.1409,0.0697,0.205
5.079415,0.1599,-0.1021,0.1550,0.245
5.084571,0.1554,-0.1184,0.1926,0.274
5.089440,0.0559,-0.1012,0.1852,0.218
5.093516,-0.0167,-0.0343,0.1975,0.201
5.098114,-0.0386,-0.0084,0.2149,0.219
5.103100,0.0140,-0.0493,0.1830,0.190
5.109351,0.0812,-0.0306,0.1402,0.165
5.112720,0.1368,0.1230,0.0135,0.184
5.117783,0.0500,0.0568,-0.2377,0.249
5.123293,0.0900,-0.1229,0.0495,0.160
5.127287,0.0587,-0.1420,0.4856,0.509
5.132775,0.0258,-0.1136,0.1864,0.220
5.137185,0.0291,-0.0855,0.1421,0.168
5.142115,0.0349,0.0848,-0.0986,0.135
5.147250,0.0333,0.0305,-0.0055,0.046
5.151662,-0.0349,-0.1135,0.3770,0.395
5.157103,-0.0195,-0.0306,0.2890,0.291
5.161621,-0.1284,-0.0338,-0.0077,0.133
5.166575,-0.1427,0.0915,-0.2597,0.310
5.170927,-0.0359,0.2752,-0.2817,0.395
5.176656,-0.1461,0.0561,-0.0992,0.185
5.181156,0.0130,-0.2418,0.1935,0.310
5.185465,-0.0998,-0.2834,0.3029,0.427
5.190790,-0.0748,-0.0180,-0.0254,0.081
5.195824,-0.0392,0.2026,-0.0737,0.219
5.200105,-0.1521,0.2057,-0.1668,0.305
5.204818,-0.0913,0.1138,-0.2928,0.327
5.210673,-0.0483,-0.0126,0.1978,0.204
5.214956,-0.0870,-0.3776,0.5298,0.656
5.219034,-0.2493,-0.2741,0.1752,0.410
5.224442,-0.1211,0.0257,0.0368,0.129
5.229564,-0.0177,0.2304,-0.1272,0.264
5.233583,0.0511,0.3693,-0.4280,0.568
5.239287,0.0238,0.3364,-0.3134,0.460
5.243430,-0.0923,0.1734,-0.1433,0.243
5.248032,-0.1919,0.1355,-0.1082,0.259
5.253265,-0.1920,0.1504,-0.0548,0.250
5.258174,-0.1284,0.1273,0.0336,0.184
5.263708,-0.0817,0.0545,0.0427,0.107
5.268124,0.0005,-0.0368,0.0547,0.066
5.274203,0.0684,-0.0444,0.1116,0.138
5.277723,0.0437,-0.0189,0.0041,0.048
5.282644,0.0984,-0.0650,0.0193,0.119
5.287260,0.0988,-0.1608,0.1485,0.240
5.291942,0.0544,-0.1466,0.1675,0.229
5.297838,0.0608,-0.1351,0.1040,0.181
5.301561,0.0770,-0.1855,0.2737,0.339
5.306585,-0.0182,-0.1002,0.0575,0.117
5.311573,0.0968,-0.2294,0.1355,0.283
5.316618,0.0734,-0.1131,0.1662,0.214
5.321092,0.1012,-0.1594,0.2087,0.281
5.325786,0.0896,-0.1487,0.1851,0.254
5.331191,0.1473,-0.0763,0.2470,0.298
5.335737,0.0763,-0.1874,0.3996,0.448
5.341474,-0.0897,0.0799,-0.2594,0.286
5.345103,0.0868,0.4062,-0.9148,1.005
5.351958,0.3440,0.4890,-0.6548,0.887
5.355561,0.5887,0.3341,-0.7205,0.989
5.361536,0.2189,-0.5414,0.5431,0.797
5.364457,-0.6302,-0.4140,0.1083,0.762
5.370434,-0.0838,-0.1521,0.8704,0.888
5.374012,-0.3807,0.0981,0.5712,0.693
5.379052,-0.0061,0.3091,-0.4610,0.555
5.384322,-0.2100,0.0081,-0.1599,0.264
5.388721,-0.2928,0.0727,-0.2190,0.373
5.394139,0.2491,-0.0846,0.0290,0.265
5.398844,0.2957,-0.0270,0.7659,0.821
5.403205,0.0379,0.2746,-0.3118,0.417
5.410124,-0.1072,-0.2854,-0.1490,0.339
5.413052,-0.1730,-0.3849,-0.2801,0.507
5.417507,-0.0530,-0.0065,-0.5225,0.525
5.422790,0.1255,0.3307,-0.7376,0.818
5.428055,0.1292,0.6082,-0.3236,0.701
5.431697,-0.0070,-0.0593,0.1962,0.205
5.436729,-0.0302,-0.4648,0.5000,0.683
5.442794,-0.0411,-0.2830,0.4335,0.519
5.446473,0.0171,-0.1882,0.4794,0.515
5.451995,0.0392,-0.1845,0.0994,0.213
5.456643,0.0298,0.2467,-0.3942,0.466
5.460918,0.0464,0.3895,-0.4543,0.600
5.466322,-0.0723,-0.0839,0.0772,0.135
5.471091,0.1348,0.1281,-0.6360,0.663
5.476439,-0.0398,0.5995,-0.2506,0.651
5.480485,-0.0913,-0.6259,0.2835,0.693
5.485809,0.0476,-0.2505,-0.2514,0.358
5.490425,0.0091,0.4140,0.2157,0.467
5.494958,-0.1929,0.2658,-0.4585,0.564
5.500330,0.1442,-0.3017,-0.2104,0.395
5.504385,0.0773,-0.1522,0.0639,0.182
5.510118,0.2360,0.2027,-0.0208,0.312
5.514826,0.0165,0.5503,-0.3375,0.646
5.519707,-0.3201,0.2921,-0.3572,0.562
5.524704,-0.0139,-0.5412,0.3543,0.647
5.528952,0.1171,-0.2709,0.3410,0.451
5.533874,0.1117,0.0755,0.1975,0.239
5.538231,-0.0006,-0.0629,0.0386,0.074
5.546015,-0.0316,-0.0457,-0.0620,0.083
5.548722,-0.0576,0.0829,-0.0238,0.104
5.552950,-0.0335,0.0917,0.0162,0.099
5.557627,0.0096,-0.0326,-0.0413,0.053
5.562516,0.0285,-0.0584,0.1703,0.182
5.567181,0.0166,-0.0129,0.0812,0.084
5.573040,-0.0024,-0.0009,0.0737,0.074
5.577768,-0.0260,-0.0365,-0.0169,0.048
5.581666,-0.1139,-0.0243,-0.0330,0.121
5.587060,0.0178,0.1302,0.0465,0.139
5.592225,-0.0715,-0.3530,0.3732,0.519
5.597108,0.3260,-0.4665,0.3179,0.652
5.601460,-0.2338,1.2590,-0.8502,1.537
5.606454,-0.1623,0.2186,-0.1660,0.319
5.624562,-0.1403,-0.7326,0.3485,0.823
5.625250,0.0340,-0.2469,0.1965,0.317
5.625803,0.0954,0.1351,0.1149,0.201
5.626323,0.0853,-0.0821,0.0459,0.127
5.630414,-0.0146,-0.1622,0.0466,0.169
5.634883,-0.1209,-0.0636,0.0069,0.137
5.639816,-0.0759,-0.0135,-0.0936,0.121
5.645140,0.2382,-0.3891,0.2486,0.520
5.651077,0.1344,-0.2156,0.1828,0.313
5.654426,0.1604,0.1083,0.1195,0.227
5.660664,-0.0803,-0.1734,0.1401,0.237
5.664963,-0.0047,-0.2394,0.2793,0.368
5.669785,-0.4328,-0.5471,-0.0771,0.702
5.675077,0.1625,-0.5344,0.3654,0.667
5.679871,0.2265,-0.3985,0.2612,0.528
5.683539,0.1341,0.0779,0.1106,0.190
5.688808,-0.0567,-0.1028,-0.0822,0.143
5.693075,-0.2366,-0.6808,-0.0532,0.723
5.698825,0.1665,-0.3951,0.4132,0.595
5.702800,-0.4780,-0.9048,0.1920,1.041
5.708002,0.1611,-0.6342,0.8010,1.034
5.712899,0.2647,-0.2690,0.7562,0.845
5.717605,-0.5005,-0.8931,0.3380,1.078
5.722585,-0.3385,-1.7684,0.4014,1.845
5.726802,0.7334,-0.9387,0.5851,1.327
5.733090,0.0235,0.3326,0.7592,0.829
5.736573,0.3455,0.6103,-0.0694,0.705
5.741231,0.5721,0.8247,-0.1993,1.023
5.747082,0.6695,1.9803,-1.2019,2.411
5.752090,0.2001,1.5929,-0.1270,1.610
5.756663,-0.0553,-0.3389,0.3200,0.469
5.761157,-0.2469,-0.1749,0.1250,0.327
5.765852,-0.0882,-0.2378,0.4367,0.505
5.770770,-0.2919,0.0021,-0.6924,0.751
5.775784,-0.1692,0.7871,0.0647,0.808
5.780345,0.2484,0.3261,0.4504,0.609
5.785277,-0.0672,0.3964,1.5195,1.572
5.790219,0.3965,0.6886,0.0507,0.796
5.794483,-0.9502,0.3846,-3.3088,3.464
5.799460,-0.0672,0.5750,-1.3286,1.449
5.804832,-0.2078,-0.0719,-0.5537,0.596
5.808942,0.0439,0.2627,-0.3975,0.478
5.814013,0.2160,0.1882,0.3855,0.480
5.819496,-0.0978,-0.1232,-0.3114,0.349
5.824906,-0.1478,0.1800,-0.1124,0.259
5.828811,0.4002,0.6318,-0.0809,0.752
5.834000,0.5443,1.7002,-0.4253,1.835
5.838017,0.0099,1.3690,-0.8346,1.603
5.843018,0.0868,0.6203,-0.3773,0.731
5.847812,0.0912,0.4776,-0.0298,0.487
5.853835,0.0402,0.4477,0.0235,0.450
5.858202,-0.0590,0.2672,-0.0262,0.275
5.862568,-0.1127,-0.0254,-0.0331,0.120
5.866897,-0.2353,-0.1671,-0.0524,0.293
5.872048,-0.3046,-0.3016,-0.0747,0.435
5.877774,-0.2797,-0.4291,0.0294,0.513
5.881778,-0.2156,-0.5232,0.1304,0.581
5.886497,-0.2705,-0.4788,0.1495,0.570
5.892556,-0.1889,-0.3961,0.1206,0.455
5.896866,-0.0449,-0.0268,-0.0255,0.058
5.900887,-0.0664,0.0529,-0.0089,0.085
5.906321,-0.0952,-0.0014,-0.0189,0.097
5.911629,-0.0298,0.0158,0.0114,0.036
5.915593,-0.3752,-0.4549,0.1296,0.604
5.920630,-0.2937,-0.6361,0.3000,0.762
5.925530,-0.1756,-0.4508,0.3132,0.576
5.930472,3.9511,4.5116,0.3689,6.008
5.935081,-2.8524,-0.9288,-0.7504,3.092
5.940119,0.0405,-3.2705,0.9439,3.404
5.945697,0.0949,-0.2725,0.3535,0.456
5.949537,-0.0718,1.6555,-0.0774,1.659
5.954179,0.5559,0.1164,0.2931,0.639
5.959320,-0.0431,-0.6750,0.0502,0.678
5.964673,-0.0029,0.0481,-0.1682,0.175
5.968874,-0.1021,0.2516,-0.1071,0.292
5.973739,0.0271,0.0122,-0.0848,0.090
5.978381,-0.2627,-0.3726,0.0618,0.460
5.983266,-0.1187,-0.0685,0.0955,0.167
5.987720,-0.3200,-0.1806,-0.0412,0.370
5.993089,0.3716,0.1663,0.1021,0.420
5.997628,-0.2195,-0.0277,-0.1522,0.269
6.002527,-0.3464,-0.1710,-0.1700,0.422
6.008155,0.2637,0.1305,-0.0608,0.300
6.012161,-0.2793,-0.0586,-0.0696,0.294
6.017095,-0.1651,-0.2137,0.0481,0.274
6.021752,0.4130,0.4156,-0.0730,0.590
6.026706,0.1153,0.4249,-0.2278,0.496
6.032102,0.2025,0.0946,-0.1193,0.253
6.036651,0.0074,0.1450,-0.1574,0.214
6.041043,0.0655,0.2003,-0.1308,0.248
6.046122,0.1737,0.2938,-0.0444,0.344
6.050919,0.0398,0.1960,-0.0753,0.214
6.056462,-0.0346,0.1797,-0.0801,0.200
6.060688,0.3194,0.3076,-0.1559,0.470
6.065191,1.0118,1.4111,-0.4456,1.793
6.070965,0.6224,1.2029,-0.6343,1.496
6.076221,0.2271,0.1961,-0.4336,0.527
6.080367,-0.1958,-0.3577,-0.1382,0.431
6.085017,-0.3451,-0.4542,0.1299,0.585
6.091346,-0.4035,-0.3546,0.2369,0.587
6.096070,-0.3659,-0.2647,0.1590,0.479
6.098932,-0.3762,-0.2562,0.1217,0.471
6.105683,-0.3034,-0.3535,0.1052,0.478
6.109688,-0.7789,-1.0729,-0.0101,1.326
6.114130,0.2636,-0.4042,0.4303,0.647
6.118764,0.0205,0.1752,-0.0779,0.193
6.124014,-0.3188,0.1587,-0.2898,0.459
6.128594,-0.2896,0.1040,-0.1888,0.361
6.133329,-0.3788,-0.1207,-0.1228,0.416
6.137811,-0.0786,-0.4072,0.5556,0.693
6.142575,0.2833,0.0001,0.1960,0.345
6.148074,0.0350,0.1153,0.0069,0.121
6.153336,-0.0672,0.0031,0.0260,0.072
6.157642,-0.0426,-0.0252,0.0716,0.087
6.162408,-0.0203,-0.0391,0.0799,0.091
6.167828,0.0739,-0.0842,0.2420,0.267
6.171805,0.0708,-0.1533,0.2080,0.268
6.177805,0.0439,-0.1626,0.1433,0.221
6.182334,0.0315,-0.1073,0.2012,0.230
6.186232,0.0145,-0.0737,0.1828,0.198
6.192296,-0.0384,-0.0401,0.0926,0.108
6.196792,-0.0149,-0.0041,0.0410,0.044
6.200929,-0.0273,0.0295,0.0229,0.046
6.205499,-0.0230,0.0200,0.0314,0.044
6.211897,-0.0163,-0.0038,0.0444,0.047
6.216047,-0.0334,-0.0372,0.0337,0.060
6.219955,0.0045,-0.0275,0.0447,0.053
6.225796,-0.0079,0.0013,0.0344,0.035
6.230183,-0.0129,0.0038,0.0744,0.076
6.235313,-0.0252,-0.0392,0.0835,0.096
6.250054,-0.0111,-0.0367,0.0999,0.107
6.250882,-0.0306,-0.0246,0.0902,0.098
6.251501,-0.0285,0.0258,0.0879,0.096
6.254029,-0.0097,-0.0100,0.0763,0.078
6.258837,0.0018,0.0021,0.0863,0.086
6.263717,-0.0274,0.0023,0.0776,0.082
6.268575,-0.0206,0.0024,0.1098,0.112
6.274420,-0.0234,-0.0261,0.1349,0.139
6.278538,-0.0214,0.0100,0.1125,0.115
6.283547,-0.0148,0.0078,0.1117,0.113
6.287653,-0.0236,0.0162,0.0725,0.078
6.292776,0.8646,1.2656,0.0481,1.533
6.298111,-0.5672,0.4162,-0.0590,0.706
6.303903,-0.3835,-0.6808,0.2261,0.813
6.307806,0.0260,-0.5716,0.1925,0.604
6.311924,-0.0713,-0.0826,-0.0438,0.118
6.317255,-0.0127,0.1164,-0.2232,0.252
6.321557,-0.0910,0.0259,-0.3764,0.388
6.326928,0.0150,0.0145,-0.2280,0.229
6.331530,0.0044,0.0316,0.0446,0.055
6.336740,-0.0462,-0.0520,0.1683,0.182
6.340974,-0.1152,-0.2935,0.1597,0.353
6.346016,-0.1069,-0.5588,0.2922,0.640
6.350643,0.0741,-0.2835,0.1303,0.321
6.355448,0.0820,0.1040,-0.0259,0.135
6.360170,0.1298,0.3239,-0.1602,0.384
6.365146,0.0236,0.3692,-0.1894,0.416
6.372028,0.0226,0.2806,-0.2717,0.391
6.374899,-0.0289,0.1945,-0.3951,0.441
6.380134,0.0390,0.2306,-0.2788,0.364
6.384601,0.1292,0.0679,0.0648,0.160
6.388983,-0.1342,-0.1473,0.1523,0.251
6.395051,0.3692,-0.5467,0.3616,0.752
6.399685,-0.2658,-0.2834,0.4178,0.571
6.403818,0.4463,0.1374,0.1333,0.486
6.410053,-0.1762,-0.1502,0.2138,0.315
6.413853,0.0355,-0.1588,0.2711,0.316
6.418452,0.0984,0.0392,0.1185,0.159
6.426336,-0.2027,0.0599,-0.1258,0.246
6.428154,-0.1498,0.0543,-0.1212,0.200
6.432920,-0.0466,-0.2839,0.1780,0.338
6.437338,-0.0505,-0.2823,0.3488,0.452
6.442398,0.0862,-0.1835,0.1980,0.283
6.447622,-0.2396,0.0951,0.1741,0.311
6.452786,-0.0918,0.2792,-0.3180,0.433
6.457144,0.1182,0.2649,-0.6021,0.668
6.462487,-0.0030,0.1747,-0.2019,0.267
6.467165,-0.3715,0.1971,-0.0217,0.421
6.472005,0.2008,0.0698,-0.2108,0.299
6.477680,0.1544,-0.0519,0.1361,0.212
6.481730,-0.0297,0.1290,-0.0968,0.164
6.486081,0.1482,0.2230,-0.2471,0.364
6.491169,-0.0300,0.2334,-0.1991,0.308
6.495660,-0.0172,0.1963,-0.1611,0.255
6.500506,0.0002,0.1216,-0.0118,0.122
6.505183,0.0056,0.0356,0.0627,0.072
6.510462,0.0346,0.0383,0.0749,0.091
6.515516,0.0538,0.0171,0.1299,0.142
6.520317,0.0924,-0.0895,0.1205,0.176
6.525427,0.1360,-0.1621,0.1564,0.263
6.530037,0.1663,-0.3437,0.3155,0.495
6.534142,0.0865,-0.6002,0.5558,0.823
6.539528,-0.0007,-0.6651,0.4424,0.799
6.545637,-0.1893,-0.3663,0.3655,0.551
6.549354,-0.1508,-0.1221,-0.0486,0.200
6.553783,-0.1602,0.0274,-0.3204,0.359
6.559698,-0.2125,0.2256,-0.4861,0.576
6.563855,0.1205,0.0517,-0.4080,0.429
6.568291,0.1594,-0.1067,-0.1099,0.221
6.573778,0.0246,0.0805,-0.0437,0.095
6.578672,-0.0783,-0.0187,0.2073,0.222
6.583338,-0.2644,-0.1240,0.5998,0.667
6.587875,-0.0665,-0.1001,0.4005,0.418
6.592750,0.0276,-0.2783,0.6571,0.714
6.597188,0.4309,-0.0565,0.5039,0.665
6.602480,0.0307,-0.1167,0.2383,0.267
6.607125,0.0608,0.0256,0.3417,0.348
6.611836,-0.0751,-0.1089,0.4413,0.461
6.617050,-0.1246,-0.4036,0.5290,0.677
6.621477,-0.1651,0.0190,0.8208,0.837
6.626130,-0.2281,0.6380,0.8354,1.076
6.631405,-0.2813,0.3355,-0.3174,0.541
6.636269,-0.2885,-0.4989,-0.6596,0.876
6.640633,0.0205,-0.2558,-0.8730,0.910
6.645996,0.5128,0.4292,-0.6549,0.936
6.651027,0.3024,0.1321,-0.8218,0.886
6.655682,0.1078,-0.3833,-0.5124,0.649
6.660439,0.3318,0.2740,-0.3737,0.570
6.664652,-0.0049,0.9165,-0.5379,1.063
6.670224,-0.2656,0.2409,-0.2597,0.443
6.674921,-0.0448,-0.2248,0.0705,0.240
6.679941,0.0291,0.1444,0.0227,0.149
6.685159,-0.0190,0.1141,-0.1506,0.190
6.689049,0.1185,0.0319,-0.2540,0.282
6.694568,0.1312,0.1569,-0.2638,0.334
6.699431,-0.0176,0.1930,-0.1286,0.233
6.703988,-0.0226,-0.0039,0.2508,0.252
6.708492,0.0388,-0.1255,0.5660,0.581
6.714378,0.0545,-0.0964,0.4584,0.472
6.719457,-0.0778,-0.0009,0.2640,0.275
6.723512,-0.0198,0.2601,0.0220,0.262
6.729062,-0.1197,0.2107,-0.1293,0.275
6.734890,0.0558,0.4087,-0.1374,0.435
6.737680,-0.2050,0.4035,-0.1717,0.484
6.742861,-0.0605,0.1467,0.1383,0.210
6.747415,-0.1807,0.1342,0.0291,0.227
6.753768,-0.1750,0.1910,-0.1488,0.299
6.757028,-0.1082,0.2403,-0.2141,0.340
6.761564,-0.1233,0.2799,-0.2297,0.382
6.766603,-0.1268,0.2646,-0.1672,0.338
6.772942,-0.0662,0.1285,-0.0008,0.145
6.776867,-0.0748,-0.0233,0.1188,0.142
6.780816,-0.0332,-0.1263,0.1779,0.221
6.785630,0.0058,-0.0387,0.1749,0.179
6.791408,-0.0836,-0.0301,0.2146,0.232
6.795415,-0.0346,-0.0382,0.1872,0.194
6.799782,-0.1048,0.0036,0.2504,0.271
6.805171,0.0108,-0.0665,0.1749,0.187
6.810834,0.0447,-0.0482,-0.0571,0.087
6.814602,0.0235,0.0792,-0.2850,0.297
6.820266,0.0240,0.1676,-0.4401,0.472
6.824326,0.0437,0.0414,-0.3785,0.383
6.828898,0.0875,-0.0744,-0.4249,0.440
6.833892,0.0550,0.0221,-0.4401,0.444
6.838448,0.0967,0.1223,-0.3061,0.344
6.844039,-0.0923,0.0414,-0.2021,0.226
6.848464,-0.0212,0.0419,-0.2537,0.258
6.852853,-0.0266,0.0352,-0.2554,0.259
6.857769,-0.0362,-0.1021,-0.1621,0.195
6.862947,0.0164,-0.2646,0.0564,0.271
6.867801,0.0381,-0.1931,0.1215,0.231
6.873220,0.0196,-0.1745,0.2002,0.266
6.877878,-0.0794,-0.1846,0.2927,0.355
6.882389,-0.0684,-0.1401,0.2014,0.255
6.888160,-0.1123,-0.0839,0.1763,0.225
6.892606,0.0461,-0.1137,0.4417,0.458
6.897193,0.0112,-0.1742,0.2494,0.304
6.901778,0.0574,-0.1321,0.1590,0.215
6.906993,0.0869,-0.1095,0.2168,0.258
6.912528,-0.0146,-0.0775,0.1646,0.183
6.916086,0.0018,-0.0151,-0.1648,0.166
6.921971,-0.2749,0.0968,-0.5095,0.587
6.927034,0.1174,0.1724,0.5378,0.577
6.932720,0.0729,-0.1541,0.3749,0.412
6.935956,0.0671,-0.2002,0.0732,0.223
6.940749,0.0900,-0.0442,-0.0431,0.109
6.945592,0.0463,0.0037,-0.0112,0.048
6.951068,-0.0067,0.0037,-0.0200,0.021
6.954926,-0.0283,0.0227,-0.0192,0.041
6.960223,-0.0190,0.0178,-0.0304,0.040
6.965380,0.0235,0.0011,-0.0037,0.024
6.970056,0.0182,-0.0036,0.0062,0.020
6.974315,0.0059,-0.0059,-0.0053,0.010
6.980077,0.0032,-0.0059,-0.0048,0.008
6.983948,0.0051,-0.0129,0.0459,0.048
6.988930,0.1660,0.1464,0.0705,0.232
6.993939,-0.1087,0.0574,0.0375,0.128
6.998189,-0.0150,-0.1538,0.0695,0.169
7.004495,0.4185,1.2184,-0.5320,1.394
7.008529,-0.0772,0.8363,-0.5161,0.986
7.013946,-0.1889,-0.9178,0.4682,1.048
7.017596,-0.0762,-1.4402,0.7581,1.629
7.023545,0.0547,-0.5978,0.2242,0.641
7.028259,0.1978,0.3613,-0.0459,0.414
7.032830,-0.0291,0.5077,-0.4042,0.650
7.037537,-0.2124,0.3518,-0.3991,0.573
7.042623,-0.3050,0.2923,-0.3496,0.548
7.047554,-0.2001,0.1622,-0.1534,0.300
7.051876,-0.1077,-0.1876,0.1527,0.265
7.056244,-0.0105,-0.4090,0.3949,0.569
7.062770,0.0435,-0.2677,0.4358,0.513
7.066414,0.0806,-0.0825,0.2657,0.290
7.070854,0.1082,0.0203,0.0569,0.124
7.076808,0.0837,-0.0938,0.0785,0.148
7.081013,0.0763,-0.1216,0.2574,0.295
7.085310,0.0596,-0.0424,0.3705,0.378
7.091304,0.1768,-0.0352,-0.1309,0.223
7.095955,0.2092,-0.2256,0.2673,0.408
7.101051,0.2904,-0.3341,0.2354,0.501
7.106554,0.3528,-0.8083,0.0370,0.883
7.110575,-0.7680,-1.4428,0.1995,1.647
7.114386,0.4312,-1.5556,0.9761,1.886
7.123455,1.0851,1.1558,-0.4056,1.636
7.125557,-0.6951,1.0088,-1.3202,1.801
7.129723,-0.2993,0.8001,-0.7926,1.165
7.133541,0.0074,0.8457,-0.3408,0.912
7.140308,-0.5948,0.4877,-0.0127,0.769
7.145746,0.1357,0.0779,-0.0741,0.173
7.148351,-0.1722,-0.1046,0.0817,0.217
7.155790,0.3948,0.7849,0.1593,0.893
7.157596,0.0020,-0.1759,0.2089,0.273
7.162343,-0.1599,-0.8888,0.5267,1.045
7.167390,-0.1620,-0.0144,0.2889,0.332
7.173621,-0.4445,0.2094,0.1881,0.526
7.177533,-0.2118,-0.2548,0.2994,0.447
7.182260,-0.0379,-0.2357,0.2316,0.333
7.186650,0.0291,-0.0627,-0.0403,0.080
7.191410,0.0943,-0.3118,-0.0609,0.331
7.196347,0.1737,-0.3144,-0.0913,0.371
7.202384,0.1172,-0.0891,-0.1381,0.202
7.205742,-0.0034,0.1724,-0.3053,0.351
7.210760,0.0504,0.3084,-0.3679,0.483
7.215796,0.2497,-0.1246,0.1825,0.333
7.221002,0.1182,-0.3928,0.4143,0.583
7.225647,-0.0911,0.0061,0.1996,0.219
7.230159,-0.3047,0.3523,-0.2109,0.511
7.235848,-0.2636,0.4750,-0.5811,0.795
7.240845,-0.1283,0.4734,-0.8230,0.958
7.244627,-0.0606,0.2557,-0.5886,0.645
7.249397,0.1272,0.1278,-0.4628,0.497
7.255672,0.3594,0.3308,-0.3902,0.625
7.259609,0.0706,-0.1307,-0.1024,0.180
7.264665,0.0008,-0.3819,0.0972,0.394
7.270456,-0.0445,-0.1229,0.0646,0.146
7.274933,-0.0404,0.1079,-0.0235,0.118
7.279191,-0.3181,0.4679,0.1331,0.581
7.284225,-0.3919,0.9270,-1.0909,1.484
7.289385,0.1152,-0.6455,0.8179,1.048
7.294023,-0.1210,-0.7975,0.1861,0.828
7.300217,0.3021,0.0110,-0.0476,0.306
7.303116,0.1989,0.4401,-0.0117,0.483
7.307725,-0.0966,0.3365,-0.0356,0.352
7.313035,-0.2164,0.2101,0.3136,0.435
7.318134,-0.0335,-0.2787,0.0657,0.288
7.323857,0.0330,0.1059,-0.2823,0.303
7.328139,0.1211,0.7080,-0.5463,0.902
7.332255,0.8716,7.5836,-6.3614,9.937
7.336767,-2.3472,-2.7295,2.9691,4.666
7.341202,1.1893,-7.2825,4.8689,8.841
7.346341,0.7256,-2.2254,0.7994,2.473
7.351584,1.1960,2.8601,-0.7332,3.186
7.356226,0.5601,2.4089,-1.2374,2.765
7.360667,-0.8564,0.0769,-1.3511,1.601
7.365511,-0.3495,-0.3700,-0.5802,0.772
7.371040,-0.0013,0.2476,0.0728,0.258
7.375923,0.3853,0.3575,0.2355,0.576
7.380092,0.0473,-0.0351,0.2639,0.270
7.386930,0.1011,-0.3336,0.3045,0.463
7.391048,-0.0277,0.3703,-0.0924,0.383
7.394844,0.0731,0.4325,-0.2758,0.518
7.400194,0.0162,-0.0386,-0.1628,0.168
7.404342,0.0532,-0.2726,0.0244,0.279
7.410793,0.1029,-0.1908,0.2981,0.369
7.414548,-0.0260,-0.3198,0.5645,0.649
7.418606,-0.0474,-0.3578,0.4575,0.583
7.424171,0.0022,0.0374,-0.0798,0.088
7.428392,0.0298,0.3198,-0.2787,0.425
7.433110,0.0028,0.1689,-0.0901,0.191
7.437922,-0.1178,-0.0582,-0.0047,0.131
7.443116,-0.1357,0.0355,0.0855,0.164
7.447485,-0.0890,-0.0239,0.0895,0.128
7.452538,-0.0995,-0.1336,0.1915,0.254
7.457464,-0.0954,-0.2743,0.1787,0.341
7.462187,0.0909,-0.2261,0.2356,0.339
7.466910,0.1419,-0.2141,0.2685,0.372
7.474092,0.0257,-0.2452,0.1893,0.311
7.477168,0.0583,-0.3171,0.1365,0.350
7.481810,-0.0284,-0.2360,0.0789,0.250
7.486635,0.0716,-0.0330,0.0719,0.107
7.491430,0.1140,-0.0215,0.0842,0.143
7.496234,0.0341,0.0283,0.0824,0.094
7.501184,-0.0290,0.0494,-0.0004,0.057
7.505942,-0.0177,-0.0014,0.0964,0.098
7.510786,-0.1163,-0.1095,0.1478,0.218
7.515744,0.0394,-0.1746,0.3904,0.429
7.520824,-0.2059,-0.5077,0.9922,1.133
7.525332,-0.1757,-0.7591,1.0198,1.283
7.531320,-0.1842,-0.2426,0.4300,0.527
7.534935,-0.0115,0.2519,-0.7594,0.800
7.539987,0.2445,0.2653,-0.7536,0.836
7.545236,0.2044,0.1206,-0.6192,0.663
7.550072,0.0567,0.1626,-0.4206,0.455
7.554349,0.0549,0.1711,0.0474,0.186
7.560082,-0.3185,0.2612,-0.1553,0.440
7.564953,0.2531,-0.1079,0.4212,0.503
7.569570,0.1208,0.2479,0.0100,0.276
7.574266,-0.6240,0.2496,-0.2581,0.720
7.579021,0.0652,-0.4256,0.4110,0.595
7.583729,-0.0494,-0.1962,-0.0401,0.206
7.588684,0.1421,0.0591,-0.2672,0.308
7.593128,-0.1841,0.1996,0.6600,0.714
7.598182,0.2385,0.0532,0.6651,0.709
7.602781,-0.3038,-0.3399,0.0008,0.456
7.607436,-0.2313,-0.2016,-0.2522,0.397
7.612023,0.3565,-0.0973,0.1138,0.387
7.617047,-0.2436,-0.0670,-0.4907,0.552
7.621787,0.7400,1.0950,-3.7936,4.017
7.627033,-0.2163,1.6065,0.7569,1.789
7.632343,1.7034,-0.6396,1.3708,2.278
7.636635,-1.2649,-1.1373,1.0317,1.989
7.641520,0.4973,-0.7063,1.7481,1.950
7.647261,-0.0432,-0.1660,0.2727,0.322
7.651222,-0.0978,1.0034,-0.8440,1.315
7.656156,0.2588,0.5310,-0.6046,0.845
7.660885,-0.1599,-0.0053,-0.5091,0.534
7.665607,0.1823,0.0999,0.0001,0.208
7.671523,0.0313,0.0926,0.0135,0.099
7.675555,0.0880,0.2098,0.0342,0.230
7.680877,-0.0515,0.1045,0.0331,0.121
7.686384,-0.0479,0.0019,0.0723,0.087
7.690376,0.0608,0.2318,-0.1209,0.268
7.694976,0.0732,0.1699,-0.3450,0.391
7.700736,0.0611,0.1823,-0.0472,0.198
7.705070,0.0173,0.1973,0.0531,0.205
7.709025,0.1064,0.5593,-0.5210,0.772
7.714288,-0.0615,0.5003,-0.2399,0.558
7.719536,-0.0563,-0.0920,0.1665,0.198
7.724462,-0.0700,-0.1864,-0.1589,0.255
7.729576,0.0601,-0.2018,0.2815,0.352
7.733318,-0.1252,-0.0117,0.1853,0.224
7.738333,0.0362,-0.0561,-0.2151,0.225
7.743813,-0.2074,0.1604,-0.0518,0.267
7.748014,0.0306,-0.2021,0.4820,0.524
7.752645,-0.2097,-0.2081,0.2976,0.419
7.757557,0.0905,-0.1589,0.3527,0.397
7.762247,0.0077,0.2225,-0.0514,0.229
7.766904,-0.0559,0.0894,0.1694,0.200
7.773998,-0.0062,-0.2901,0.0837,0.302
7.776982,-0.1091,-0.2603,-0.0230,0.283
7.781520,0.0299,-0.2546,0.1262,0.286
7.786330,0.0663,-0.1390,-0.1149,0.192
7.791307,-0.0145,0.0506,0.0282,0.060
7.795786,0.1039,-0.2003,0.2830,0.362
7.800679,-0.0834,-0.1879,0.1427,0.250
7.805956,-0.0671,-0.2043,0.2114,0.302
7.810187,-0.0261,-0.2160,0.3484,0.411
7.815449,0.0926,-0.6777,0.7158,0.990
7.819934,-0.2240,-0.1608,-0.0095,0.276
7.824607,0.1229,-0.1565,0.1100,0.227
7.832871,-0.1898,-0.4752,-0.0216,0.512
7.835197,0.0196,-0.3370,0.4298,0.546
7.840808,0.0900,-0.2309,0.0348,0.250
7.844239,-0.0446,-0.0734,0.2486,0.263
7.849869,0.0146,-0.1928,-0.1355,0.236
7.854238,0.0064,0.0950,0.1064,0.143
7.859002,0.0410,-0.0114,0.3120,0.315
7.864393,0.0460,0.2134,-0.2879,0.361
7.868730,0.0696,0.2465,0.2643,0.368
7.874047,-0.0986,-0.1886,0.0916,0.232
7.878368,-0.1069,-0.0407,0.0418,0.122
7.883034,-0.0459,-0.0009,0.0124,0.048
7.887907,0.0155,-0.3320,0.3272,0.466
7.894173,-0.0302,-0.3637,-0.1109,0.381
7.897785,-0.0108,-0.0225,0.2354,0.237
7.902428,-0.0829,-0.6580,0.4696,0.813
7.907486,-0.0885,-0.6683,0.1342,0.687
7.912568,0.2453,0.3803,-0.4147,0.614
7.917360,-0.0015,0.3973,-0.2289,0.459
7.922389,0.0339,0.0413,0.0600,0.080
7.926761,0.0260,-0.1050,-0.0604,0.124
7.932997,-0.0537,0.2748,-0.1274,0.308
7.937136,-0.0649,0.3193,0.0129,0.326
7.941096,0.1408,0.2635,-0.0459,0.302
7.946282,-0.3567,-0.2403,-0.0184,0.430
7.951116,0.2605,0.2266,0.0421,0.348
7.955791,-0.1342,0.4190,-0.3066,0.536
7.960498,-0.1694,-0.0566,0.0658,0.190
7.965653,-0.3500,-0.5622,0.0092,0.662
7.970427,0.2122,0.0513,-0.4377,0.489
7.975119,-0.3945,1.3691,-0.3747,1.473
7.980492,0.5417,0.8449,-0.1818,1.020
7.985330,0.2486,0.3563,-0.3216,0.541
7.989826,0.2276,0.4703,-0.5057,0.727
7.994468,-0.1623,0.4816,-0.2964,0.588
7.999645,-0.0798,0.3412,0.0319,0.352
8.004435,-0.1817,0.2425,0.0419,0.306
8.010785,-0.0184,0.2164,0.0659,0.227
8.014036,0.2027,0.6013,-0.2445,0.680
8.018697,-0.1218,0.1521,-0.2295,0.301
8.024226,-0.0929,-0.2624,0.3578,0.453
8.029395,0.1206,0.1220,0.0779,0.188
8.033285,-0.0820,0.4823,-0.3282,0.589
8.038574,0.0553,0.5051,-0.6746,0.845
8.043820,0.0249,0.5539,-0.8167,0.987
8.048666,-0.1477,0.2699,-0.6188,0.691
8.052350,-0.0692,-0.0118,-0.3208,0.328
8.057621,-0.0348,-0.3084,-0.0302,0.312
8.062106,-0.1471,-0.8068,0.3502,0.892
8.067417,0.0590,-0.3758,0.4448,0.585
8.072436,-0.0504,-0.6771,0.1764,0.702
8.076917,0.1179,0.5157,-0.9005,1.044
8.081612,-0.5242,3.3568,-6.3746,7.223
8.086520,0.2914,0.5807,1.9852,2.089
8.091141,-0.1404,-3.0842,2.0334,3.697
8.095999,0.0078,-2.8454,1.3358,3.143
8.103459,0.9187,-0.5250,1.0581,1.496
8.106115,-0.3241,-0.2038,0.8692,0.950
8.111224,0.1757,-0.5645,0.5134,0.783
8.115392,-0.1134,-0.5066,0.0234,0.520
8.121495,-0.1426,0.0441,-0.1931,0.244
8.126099,-0.0122,0.2046,-0.0694,0.216
8.130914,0.0252,-0.0201,0.2529,0.255
8.135148,-0.0785,-0.2160,0.1997,0.304
8.139737,0.1629,-0.1415,0.4700,0.517
8.145643,-0.1699,-0.2226,0.0822,0.292
8.149562,-0.0266,-0.0882,0.0135,0.093
8.154306,0.0262,-0.0833,0.0628,0.108
8.158431,0.0411,-0.0929,0.2316,0.253
8.164402,-0.1210,-0.1837,0.2098,0.304
8.168390,0.0979,-0.2699,0.3524,0.455
8.173698,-0.1243,-0.1021,0.1159,0.198
8.178016,0.2068,0.0174,0.4306,0.478
8.182981,0.0051,-0.1503,0.3723,0.402
8.188001,0.0814,-0.2822,0.2951,0.416
8.192659,-0.0480,-0.2560,0.2373,0.352
8.198138,-0.0128,-0.1101,0.2687,0.291
8.203089,0.2187,0.1097,0.4493,0.512
8.207062,-0.1016,-0.0824,0.0640,0.146
8.214007,-0.3204,-0.2499,-0.2431,0.473
8.216465,0.2528,0.2977,-0.3921,0.553
8.223403,-0.1875,0.2879,-0.4240,0.546
8.226258,0.0704,0.2950,-0.1441,0.336
8.231239,0.1003,0.0744,0.1082,0.165
8.236137,-0.7670,-0.6257,-0.0082,0.990
8.240931,1.4054,0.3309,0.8663,1.684
8.246236,-0.4910,-0.3065,-0.2325,0.624
8.251197,-0.6612,-0.7273,-0.3243,1.035
8.256505,0.2859,0.0790,-0.1242,0.322
8.261942,-0.6148,0.1599,-0.4449,0.776
8.265800,-0.1578,-0.0272,-0.1287,0.205
8.270596,-1.0748,-1.0348,0.2405,1.511
8.275090,-0.5890,-1.2929,0.8059,1.633
8.280002,-0.0663,-0.7500,0.4413,0.873
8.284847,-0.1343,-0.0383,0.2335,0.272
8.289803,0.2264,-0.2482,0.1006,0.351
8.294413,0.3493,-0.1229,0.2336,0.438
8.300496,0.4745,0.3610,-0.3082,0.671
8.304274,0.2247,0.5745,-0.1100,0.627
8.308617,0.6272,0.7593,-0.5686,1.137
8.313542,0.4319,0.8559,-0.5143,1.088
8.318192,0.5763,0.9381,-0.3432,1.153
8.324004,0.1434,0.2864,-0.3833,0.499
8.328864,0.2797,0.2238,-0.1578,0.391
8.332650,0.3452,0.3769,-0.1093,0.523
8.338218,1.0252,0.8980,-0.1268,1.369
8.342505,0.6938,0.6890,-0.3164,1.028
8.347128,0.1385,-0.0747,-0.2767,0.318
8.352070,-0.3039,-0.4477,-0.1470,0.561
8.356969,-0.5335,-0.3274,0.0130,0.626
8.361897,-0.4693,-0.1450,0.1533,0.515
8.366540,-0.4028,-0.2067,0.2070,0.498
8.371127,-0.3529,-0.3497,0.2243,0.545
8.375786,-0.3099,-0.3946,0.1767,0.532
8.380772,-0.2690,-0.3296,0.1264,0.444
8.385995,-0.2475,-0.2741,0.1240,0.390
8.391306,-0.1352,-0.1637,0.1457,0.258
8.396801,-0.0086,-0.0224,0.1582,0.160
8.400713,0.1153,0.0566,0.1375,0.188
8.405691,0.1601,0.1260,0.0790,0.218
8.410225,0.3060,0.1361,0.0261,0.336
8.415468,0.9472,0.8769,-0.1914,1.305
8.420712,-0.3545,-0.4561,-0.0984,0.586
8.424912,-0.3232,-0.6827,0.2809,0.806
8.429813,-0.1727,0.0452,0.1246,0.218
8.434248,0.0921,0.3419,0.1386,0.380
8.439374,0.0293,-0.0338,0.0757,0.088
8.445615,0.0219,-0.2178,-0.0062,0.219
8.449386,0.0308,-0.0883,-0.0159,0.095
8.453780,0.0213,0.2657,-0.0401,0.270
8.458834,-0.0486,-0.2653,0.0912,0.285
8.463884,-0.0369,-0.0999,0.1219,0.162
8.468699,-0.0421,0.0988,0.0188,0.109
8.473854,-0.0759,-0.0997,0.0972,0.159
8.478087,-0.0976,-0.2166,0.0701,0.248
8.483509,-0.0245,-0.0295,0.0335,0.051
8.487591,0.2576,0.4559,-0.2181,0.567
8.493688,0.0659,-0.2548,0.1138,0.287
8.497633,-0.0698,-0.1854,-0.0379,0.202
8.502115,-0.1011,-0.4242,0.1885,0.475
8.506969,-0.0587,0.4445,-0.1932,0.488
8.512649,0.0191,0.1310,-0.2373,0.272
8.516776,0.1783,-0.1271,-0.0069,0.219
8.521581,-0.0453,0.1434,-0.1785,0.233
8.526392,-0.0079,-0.0358,-0.0224,0.043
8.532405,0.0585,-0.1481,0.1096,0.193
8.535978,-0.1267,-0.0377,0.0424,0.139
8.540962,-0.0556,0.0319,0.0978,0.117
8.546447,-0.0585,-0.2478,0.1769,0.310
8.550476,0.0200,-0.0131,0.0382,0.045
8.555050,-0.2457,-0.1230,0.0435,0.278
8.560504,-0.0494,-0.4840,0.3570,0.603
8.566527,-0.0061,-0.0265,0.0559,0.062
8.570836,-0.2104,0.0449,0.1369,0.255
8.574717,-0.0092,-0.2737,0.1035,0.293
8.580618,-0.0348,-0.0525,0.0699,0.094
8.586238,1.2382,1.1279,-0.4679,1.739
8.590283,-0.4914,-0.0709,-0.2775,0.569
8.593903,0.1082,-0.7801,0.3623,0.867
8.599472,-0.0069,0.3969,-0.0208,0.398
8.604679,-0.0331,0.1016,0.1807,0.210
8.608126,-0.1663,-0.4238,0.2144,0.503
8.613781,-0.0489,-0.1258,0.1340,0.190
8.618419,0.0364,0.1532,0.0072,0.158
8.623896,0.0878,0.0880,0.0072,0.125
8.628205,-0.0037,-0.0313,-0.0283,0.042
8.632741,-0.0017,-0.0332,0.0150,0.036
8.637689,-0.0759,-0.0850,0.0959,0.149
8.642372,-0.0522,-0.0509,0.0883,0.115
8.647692,-0.0024,-0.0621,0.0762,0.098
8.651927,-0.0623,-0.0804,0.0926,0.138
8.657098,-0.0005,-0.0606,0.0425,0.074
8.663037,-0.0082,-0.0101,0.0403,0.042
8.667544,0.0342,-0.0122,0.0168,0.040
8.671317,0.0002,-0.0167,0.0078,0.018
8.676293,-0.0477,-0.0924,0.0535,0.117
8.681762,-0.0664,-0.1320,0.0989,0.178
8.686926,-0.0233,-0.0928,0.0751,0.122
8.691873,-0.0066,-0.0659,0.0515,0.084
8.696187,-0.0208,-0.0035,0.0068,0.022
8.700586,0.0435,-0.0130,-0.0187,0.049
8.705498,-0.0234,-0.0034,-0.0011,0.024
8.710141,-0.0610,-0.1316,0.0588,0.157
8.715932,0.0275,-0.0616,0.0471,0.082
8.720484,-0.0486,0.0433,0.0044,0.065
8.725452,0.0350,-0.0497,0.0261,0.066
8.729757,0.0184,-0.0469,-0.0164,0.053
8.734657,0.0233,0.0293,-0.0539,0.066
8.738767,-0.0170,-0.0469,-0.0199,0.054
8.744162,0.0094,-0.0514,0.0183,0.055
8.749830,0.0478,0.0748,-0.0172,0.090
8.754696,0.0380,0.0219,-0.0123,0.046
8.758599,0.0738,0.0572,-0.0456,0.104
8.764092,-0.0829,-0.1073,-0.0524,0.145
8.768560,0.1154,-0.1185,0.0404,0.170
8.774003,-0.0280,0.1152,-0.0671,0.136
8.778243,0.0621,0.2402,-0.0883,0.263
8.782651,0.0377,0.1029,-0.0903,0.142
8.787467,-0.0411,-0.0760,-0.0070,0.087
8.792420,-0.0431,-0.1158,0.0469,0.132
8.797545,-0.0428,-0.0602,0.0361,0.082
8.801718,-0.0808,-0.0003,0.0350,0.088
8.807439,-0.0543,-0.0050,0.0601,0.081
8.811817,-0.0304,-0.0096,0.0567,0.065
8.816657,-0.0068,-0.0427,0.0794,0.090
8.821538,0.0289,-0.0328,0.0402,0.059
8.826399,-0.1708,-0.2557,0.1301,0.334
8.830835,-0.0029,-0.1421,0.2141,0.257
8.835746,-0.2263,-0.1029,0.0771,0.260
8.841405,0.0107,-0.1044,0.2307,0.253
8.845617,-0.1653,-0.0773,0.0008,0.183
8.850299,0.0017,0.0327,0.1004,0.106
8.855285,-0.0037,0.0254,-0.1046,0.108
8.860944,0.1503,0.1156,-0.0347,0.193
8.865980,0.0538,0.0696,-0.0936,0.128
8.870278,0.1483,-0.0188,-0.0783,0.169
8.875089,0.0496,-0.0162,0.0319,0.061
8.881061,0.0111,0.0362,0.0297,0.048
8.885790,0.0299,0.0003,0.0324,0.044
8.888623,-0.0015,-0.0329,0.0682,0.076
8.894722,0.0387,0.0079,0.0088,0.040
8.899352,0.0929,0.0173,-0.0263,0.098
8.903784,0.0398,0.0101,-0.0209,0.046
8.908645,0.0181,-0.0161,-0.0440,0.050
8.913941,0.0132,0.0102,0.0019,0.017
8.918345,-0.0347,0.0173,0.0142,0.041
8.924300,-0.0038,-0.0089,0.0215,0.024
8.928288,-0.0442,-0.0396,0.0147,0.061
8.932235,-0.0274,-0.0416,0.0340,0.060
8.938451,-0.0155,-0.0364,0.0197,0.044
8.943995,-0.0109,-0.0242,0.0104,0.028
8.947067,-0.0134,-0.0310,0.0033,0.034
8.951839,-0.0373,-0.0259,0.0129,0.047
8.956418,-0.0255,-0.0042,0.0199,0.033
8.962329,-0.0375,-0.0041,0.0103,0.039
8.966568,-0.0303,-0.0681,0.0436,0.086
8.971334,-0.0063,-0.0960,0.0958,0.136
8.976098,-0.0061,-0.0810,0.0905,0.122
8.981336,0.0010,-0.0589,0.0663,0.089
8.986360,-0.0155,-0.0181,0.0516,0.057
8.990695,-0.0058,-0.0678,0.0276,0.073
8.995650,-0.0103,-0.0602,0.0298,0.068
9.000822,-0.0077,0.0044,0.0057,0.011
9.004989,-0.0170,-0.0242,0.0056,0.030
9.010243,0.0190,-0.0431,0.0054,0.047
9.015246,-0.0119,0.0047,0.0027,0.013
9.020117,0.0098,0.0402,-0.0310,0.052
9.024677,0.0194,-0.0029,-0.0241,0.031
9.029689,0.0077,0.0017,-0.0245,0.026
9.034761,-0.0135,-0.0007,-0.0107,0.017
9.039533,0.0131,-0.0175,-0.0256,0.034
9.043912,0.0087,-0.0294,0.0093,0.032
9.048353,0.0112,-0.0173,0.0415,0.046
9.053841,0.0115,0.0729,-0.0312,0.080
9.058475,-0.0712,-0.0870,0.0130,0.113
9.062987,-0.0653,-0.1316,0.0805,0.167
9.068828,0.0638,0.0332,0.0335,0.079
9.073571,0.0611,0.2085,-0.0891,0.235
9.077330,0.0011,0.0430,-0.0470,0.064
9.084032,0.0458,0.1068,-0.0835,0.143
9.088325,-0.0074,0.1345,-0.0724,0.153
9.092768,0.0254,0.0266,-0.0067,0.037
9.097798,0.0221,0.0123,-0.0007,0.025
9.101874,0.0237,0.1026,-0.0375,0.112
9.106753,-0.0556,-0.0785,0.0923,0.133
9.111262,0.0131,-0.1086,0.0785,0.135
9.116256,-0.0185,-0.0078,0.0460,0.050
9.121509,-0.0236,-0.0219,0.0494,0.059
9.125854,-0.0572,-0.0501,0.0386,0.085
9.131125,-0.0666,-0.0994,0.0612,0.134
9.135717,-0.0188,-0.1270,0.1289,0.182
9.143302,-0.0000,-0.0167,0.0775,0.079
9.145396,-0.0122,-0.0331,0.0479,0.059
9.150373,-0.0100,-0.0707,0.0448,0.084
9.155140,-0.0006,-0.0202,0.0253,0.032
9.159895,0.0088,-0.0200,0.0488,0.053
9.164388,-0.0056,-0.0341,0.0390,0.052
9.170270,0.0252,0.0232,0.0246,0.042
9.174330,0.0200,0.0421,0.0105,0.048
9.178977,0.0314,0.0395,-0.0153,0.053
9.183632,-0.0048,-0.0035,-0.0197,0.021
9.188436,-0.0004,-0.0176,0.0091,0.020
9.192758,-0.0365,0.0254,-0.0265,0.052
9.198030,-0.0344,0.0444,-0.0549,0.079
9.202640,-0.0060,-0.0247,0.0000,0.025
9.208745,-0.0063,-0.0126,-0.0336,0.036
9.212337,-0.0138,-0.0195,-0.0171,0.029
9.216989,-0.0164,0.0022,-0.0104,0.020
9.222330,-0.0073,-0.0120,0.0106,0.018
9.227904,0.0067,-0.0189,0.0386,0.044
9.232052,-0.0007,-0.0496,0.0189,0.053
9.237135,0.0086,-0.0206,0.0066,0.023
9.242712,-0.0035,-0.0252,-0.0248,0.035
9.246540,-0.0107,-0.0154,0.0013,0.019
9.250839,-0.0131,0.0037,0.0153,0.020
9.256528,-0.0013,-0.0058,0.0149,0.016
9.260527,0.0034,-0.0223,0.0338,0.041
9.265659,-0.0085,-0.0293,0.0239,0.039
9.270558,0.0035,-0.0243,0.0214,0.033
9.275474,0.0058,-0.0193,0.0356,0.041
9.280394,-0.0133,-0.0381,0.0358,0.054
9.285530,-0.0085,-0.0307,0.0430,0.054
9.290740,-0.0108,-0.0280,0.0551,0.063
9.295086,-0.0250,-0.0372,0.0601,0.075
9.300896,0.0014,-0.0227,0.0510,0.056
9.305139,-0.0105,-0.0129,0.0279,0.032
9.310086,-0.0057,-0.0247,0.0358,0.044
9.315102,-0.0104,-0.0268,0.0580,0.065
9.319476,-0.0080,0.0043,0.0350,0.036
9.324344,-0.0033,-0.0075,0.0169,0.019
9.330467,-0.0152,-0.0359,0.0323,0.051
9.334367,-0.0199,-0.0236,0.0143,0.034
9.338234,0.0016,-0.0210,0.0226,0.031
9.345288,0.0015,0.0006,0.0309,0.031
9.348920,0.0227,-0.0017,0.0155,0.028
9.353506,0.0035,0.0103,-0.0142,0.018
9.358168,0.0011,0.0007,0.0063,0.006
9.362685,0.0033,-0.0134,0.0100,0.017
9.368669,-0.0229,-0.0275,0.0207,0.041
9.372795,0.0106,-0.0130,0.0219,0.028
9.377485,-0.0061,-0.0105,0.0325,0.035
9.382107,-0.0037,-0.0389,0.0146,0.042
9.387700,-0.0014,-0.0266,0.0251,0.037
9.391525,-0.0085,0.0022,0.0024,0.009
9.397477,0.0081,0.0022,-0.0061,0.010
9.402150,0.0032,-0.0049,-0.0145,0.016
9.406599,0.0127,0.0118,-0.0348,0.039
9.411320,0.0054,-0.0073,-0.0099,0.013
9.416294,0.0006,0.0047,0.0006,0.005
9.420673,0.0125,0.0118,0.0038,0.018
9.425606,0.0030,0.0165,0.0046,0.017
9.430693,0.0361,0.0377,-0.0278,0.059
9.435099,-0.0046,-0.0005,-0.0269,0.027
9.441939,-0.0094,0.0067,-0.0236,0.026
9.445786,0.0024,-0.0028,-0.0203,0.021
9.451748,-0.0166,-0.0265,0.0162,0.035
9.454577,-0.0166,-0.0310,0.0214,0.041
9.461138,-0.0022,-0.0260,0.0171,0.031
9.464925,-0.0047,-0.0162,-0.0014,0.017
9.469547,-0.0166,-0.0018,-0.0104,0.020
9.474370,0.0026,-0.0208,0.0044,0.021
9.479413,0.0073,-0.0016,-0.0284,0.029
9.483406,0.0026,-0.0158,-0.0111,0.020
9.488039,0.0075,-0.0039,0.0012,0.008
9.492940,-0.0067,0.0128,-0.0009,0.014
9.497765,0.0196,0.0174,-0.0124,0.029
9.503931,0.0148,-0.0018,0.0069,0.016
9.507655,0.0077,0.0053,0.0023,0.010
9.512408,0.0053,-0.0066,-0.0048,0.010
9.519237,0.0149,0.0029,0.0095,0.018
9.522211,-0.0040,-0.0376,-0.0026,0.038
9.526937,0.0223,0.0054,0.0067,0.024
9.531592,-0.0015,0.0220,-0.0173,0.028
9.536348,0.0009,-0.0067,-0.0125,0.014
9.541135,-0.0086,-0.0162,0.0158,0.024
9.546873,-0.0109,-0.0065,0.0298,0.032
9.551937,-0.0060,-0.0017,0.0437,0.044
9.556783,-0.0132,-0.0112,0.0339,0.038
9.560687,-0.0298,-0.0111,0.0265,0.041
9.565541,0.0012,0.0033,0.0145,0.015
9.572270,-0.0060,-0.0015,0.0382,0.039
9.576161,-0.0037,-0.0062,0.0426,0.043
9.580120,0.0104,-0.0250,0.0401,0.048
9.584461,-0.0160,-0.0295,0.0233,0.041
9.590030,0.0219,0.0135,0.0043,0.026
9.594292,-0.0093,0.0016,0.0021,0.010
9.599832,0.0048,-0.0387,0.0047,0.039
9.604980,0.0045,-0.0264,0.0167,0.032
9.608816,0.0208,0.0095,0.0073,0.024
9.614257,0.0628,0.0666,-0.0329,0.097
9.620095,0.0856,0.1587,-0.0869,0.200
9.624235,-0.0436,0.0269,-0.0716,0.088
9.628710,-0.0720,-0.1916,0.0787,0.219
9.633631,-0.0859,-0.1164,0.1234,0.190
9.639436,0.0045,0.0035,0.1131,0.113
9.643211,0.1177,0.2102,-0.0705,0.251
9.648338,-0.0263,0.0970,-0.1528,0.183
9.653976,-0.0622,-0.1862,0.0051,0.196
9.657487,-0.0074,-0.0278,0.0312,0.042
9.662170,0.0256,0.0627,0.0382,0.078
9.667468,-0.0152,-0.0707,0.0664,0.098
9.673680,-0.0200,-0.0795,0.0444,0.093
9.677982,0.0014,0.0114,-0.0272,0.029
9.681837,-0.0251,0.0066,-0.0460,0.053
9.686693,0.0174,0.0399,-0.0552,0.070
9.691783,0.0217,0.0373,-0.0525,0.068
9.696209,0.0429,-0.0485,-0.0046,0.065
9.701113,-0.0167,-0.0433,0.0310,0.056
9.706127,-0.0093,-0.0715,0.0688,0.100
9.712000,0.0029,-0.0211,0.0683,0.072
9.716094,-0.0778,0.0147,0.0708,0.106
9.721533,0.0424,-0.1708,0.2900,0.339
9.725351,0.0014,-0.3717,0.5660,0.677
9.730539,-0.0542,-0.8349,1.1772,1.444
9.735533,-0.0831,-1.0068,1.7254,1.999
9.740639,0.3400,-0.5135,1.8240,1.925
9.745181,-0.1842,-0.7954,0.7695,1.122
9.750139,0.3567,0.1359,-0.1602,0.414
9.754241,0.3662,1.0883,-1.5935,1.964
9.759509,-0.3506,1.9962,-3.2760,3.852
9.765609,0.1299,1.3842,-2.2039,2.606
9.769831,-0.1313,0.1646,-1.1686,1.187
9.774226,0.2056,0.1256,-0.1762,0.299
9.778508,-0.1913,0.3076,-0.0949,0.374
9.783833,-0.3960,-0.1740,-0.1163,0.448
9.788196,0.1798,0.0891,-0.2495,0.320
9.793989,-0.3443,0.1935,-0.3556,0.531
9.798440,0.1166,0.0596,0.1174,0.176
9.803954,0.0077,-0.3134,0.5432,0.627
9.808039,0.0189,-0.5979,0.5481,0.811
9.812257,0.0587,-0.1917,0.5414,0.577
9.817638,-0.0918,-0.2161,0.2407,0.336
9.822255,0.0870,-0.0102,0.1631,0.185
9.827010,-0.0871,-0.1668,0.0344,0.191
9.831923,0.1064,-0.1395,0.2851,0.335
9.836730,-0.0357,-0.3144,0.5194,0.608
9.842037,-0.0581,-0.2955,0.5216,0.602
9.846099,-0.0690,0.0084,0.2078,0.219
9.851189,-0.1422,0.1698,-0.0843,0.237
9.856739,-0.0274,0.1471,-0.1913,0.243
9.860935,0.0104,0.1008,-0.1975,0.222
9.865744,0.0932,0.0074,0.0270,0.097
9.871240,0.0379,-0.0639,0.0548,0.092
9.875328,0.0352,0.0198,-0.0383,0.056
9.880195,0.0158,0.0552,-0.0140,0.059
9.885202,-0.0272,0.0097,-0.0042,0.029
9.890632,0.0060,-0.0330,0.0390,0.051
9.895060,-0.0036,-0.0327,0.0677,0.075
9.899944,-0.0108,-0.0466,0.0701,0.085
9.904822,-0.0108,-0.0296,0.0775,0.084
9.909766,-0.0321,-0.0293,0.0541,0.069
9.914488,-0.0153,0.0042,0.0358,0.039
9.918519,-0.0009,0.0138,0.0321,0.035
9.924717,0.0062,-0.0290,0.0262,0.040
9.928626,0.0037,0.0021,0.0584,0.059
9.933097,-0.0060,0.0046,0.0550,0.055
9.939396,-0.0108,-0.0262,0.0659,0.072
9.943365,-0.0158,-0.0187,0.0483,0.054
9.947633,-0.0041,-0.0161,0.0189,0.025
9.953394,0.0099,-0.0229,0.0041,0.025
9.957958,0.0309,0.0035,-0.0131,0.034
9.962431,0.0044,0.0297,-0.0350,0.046
9.967947,-0.0029,0.0224,-0.0458,0.051
9.972077,0.0060,0.2384,-0.6737,0.715
9.977399,0.2386,0.2365,-0.4122,0.532
9.982052,0.1044,0.0159,-0.1687,0.199
9.986770,-0.2095,-0.2692,0.9975,1.054
9.991190,-0.2748,-0.4852,0.1815,0.586
9.996386,0.1280,0.3524,-0.4566,0.591
10.003379,0.0814,0.6013,0.6524,0.891
10.005868,0.0429,-0.6074,0.5555,0.824
10.011932,-0.2330,-0.5905,-0.1632,0.655
10.015596,0.0557,0.4806,-0.4249,0.644
10.020998,0.1925,0.4791,-0.2935,0.594
10.025938,-0.1203,-0.2466,-0.3805,0.469
10.030217,0.0334,-0.0763,-1.5022,1.504
10.034808,-0.1250,0.6466,0.9636,1.167
10.039951,0.2760,0.0924,0.8043,0.855
10.044449,0.1171,-0.5447,1.0573,1.195
10.050158,-0.2131,-0.7113,1.0290,1.269
10.054526,-0.2738,0.2017,-0.3234,0.469
10.058741,0.1858,0.4828,-0.8153,0.966
10.063571,-0.0370,0.0397,-0.6255,0.628
10.069288,0.4571,-1.0035,0.8945,1.420
10.074686,0.4055,-0.5288,2.4331,2.523
10.078209,3.3044,1.5056,3.3273,4.925
10.083678,0.6092,-0.1763,1.6763,1.792
10.087741,-1.9076,-3.7354,-0.4161,4.215
10.092919,-0.9417,-0.7258,-1.7103,2.083
10.097965,-2.0474,2.7339,-4.3286,5.514
10.103124,-1.3870,2.7617,-3.3257,4.540
10.107384,-0.2523,0.4097,-1.7262,1.792
10.112523,0.0651,-0.5530,-0.7930,0.969
10.118076,0.4071,0.3144,0.4458,0.681
10.123458,0.1258,-0.3601,1.8080,1.848
10.128388,-0.2323,-1.3522,1.5007,2.033
10.131801,0.4609,-0.5949,1.0356,1.280
10.136785,0.4478,0.5083,0.2251,0.714
10.141487,0.1068,0.4386,0.0003,0.451
10.146232,0.1355,-0.1573,0.0582,0.216
10.151135,0.0598,-0.2555,0.1238,0.290
10.155890,0.2723,-0.0668,0.1826,0.335
10.160308,0.2082,-0.1585,0.1722,0.313
10.165207,0.1915,-0.1853,0.1508,0.306
10.170520,0.3430,0.0985,0.1454,0.385
10.175151,-0.2430,-0.0410,-0.0067,0.247
10.179897,-0.3518,-0.0819,-0.2088,0.417
10.184676,-0.7742,0.3132,-0.7634,1.131
10.189899,-0.5280,0.4357,-0.7776,1.036
10.194721,-0.1576,0.2328,-0.5152,0.587
10.199269,0.0507,0.1876,-0.2381,0.307
10.204371,0.2289,-0.4340,0.4075,0.638
10.209649,0.2949,-0.3066,0.3999,0.584
10.214178,0.0896,0.0911,0.1703,0.213
10.218563,-0.0084,0.3570,-0.1910,0.405
10.223589,0.0108,0.1587,-0.2458,0.293
10.228512,0.0294,0.1473,-0.1978,0.248
10.233090,0.4165,0.5256,-0.2752,0.725
10.237547,0.2741,0.3841,-0.1900,0.509
10.242736,-0.4852,-0.6850,0.0314,0.840
10.247157,-0.3716,-0.8648,0.1404,0.952
10.252624,0.1308,1.3925,-0.4552,1.471
10.257559,0.0906,1.0141,-0.5451,1.155
10.262151,0.0880,-0.5360,0.0324,0.544
10.267167,0.1065,-1.1091,0.6334,1.282
10.272111,0.0709,-0.5507,0.7249,0.913
10.276634,0.0354,-0.1795,0.6034,0.631
10.281531,-0.0555,0.0987,-0.1158,0.162
10.286507,-0.1108,1.3093,-0.8598,1.570
10.290736,-0.1735,-0.4664,0.2312,0.549
10.295356,0.0942,-1.4611,1.1371,1.854
10.300543,0.1563,-0.4987,0.8975,1.039
10.305193,0.0504,0.0537,0.2949,0.304
10.310887,-0.0655,0.0246,-0.1326,0.150
10.315188,-0.0980,0.1320,-0.3347,0.373
10.319439,0.0081,0.1746,-0.2448,0.301
10.324178,0.0351,0.1432,-0.1023,0.179
10.330388,0.0407,0.0328,-0.0147,0.054
10.334510,-0.0110,-0.0440,0.0515,0.069
10.339175,-0.0437,0.0085,0.0504,0.067
10.343907,-0.0693,0.0227,-0.0605,0.095
10.348629,0.0440,-0.0756,-0.0134,0.088
10.353367,0.0543,0.0104,-0.0065,0.056
10.358596,0.2036,0.1584,0.1530,0.300
10.363560,-0.0926,0.0218,-0.0272,0.099
10.368047,0.0372,0.0862,-0.0832,0.125
10.374006,-0.0295,0.1076,-0.1824,0.214
10.378078,0.0354,0.0835,-0.1669,0.190
10.383175,0.0165,0.0761,-0.1637,0.181
10.387839,0.0119,0.0592,-0.1750,0.185
10.392581,-0.0215,0.0663,-0.1195,0.138
10.397494,-0.0214,0.0447,-0.0451,0.067
10.402736,-0.0261,-0.0080,0.0079,0.028
10.407283,-0.0163,-0.0295,0.0870,0.093
10.411847,-0.0232,-0.0224,0.0512,0.061
10.417207,0.0128,-0.0439,0.0682,0.082
10.421367,-0.0012,-0.0415,0.0926,0.102
10.426946,-0.0126,-0.0751,0.1386,0.158
10.431790,-0.0217,-0.0990,0.1103,0.150
10.436782,-0.0333,-0.0105,-0.0161,0.038
10.441079,0.0076,0.0660,-0.0992,0.119
10.445987,-0.0040,0.0251,-0.0699,0.074
10.450713,-0.0251,-0.0228,-0.0405,0.053
10.455609,-0.0080,-0.0061,-0.0641,0.065
10.460672,0.0137,0.0632,-0.0708,0.096
10.465622,-0.0005,0.0702,-0.1375,0.154
10.470028,-0.0030,0.0582,-0.1371,0.149
10.474926,-0.0125,0.0079,-0.0434,0.046
10.481081,-0.0052,-0.0614,0.0479,0.078
10.486457,0.0022,-0.0710,0.0699,0.100
10.489497,0.0050,-0.1021,0.1232,0.160
10.494228,-0.0113,-0.0447,0.0736,0.087
10.500494,0.0226,0.0222,-0.0166,0.036
10.504135,0.0517,0.0532,-0.0086,0.075
10.508374,0.0329,0.0100,-0.0485,0.059
10.513233,-0.0194,0.0362,-0.0573,0.070
10.520627,-0.0046,0.0313,-0.0517,0.061
10.524973,-0.0211,0.0407,-0.0441,0.064
10.527713,-0.0376,0.0621,-0.0941,0.119
10.533644,0.0079,0.0740,-0.1731,0.188
10.538381,0.0150,0.0883,-0.1781,0.199
10.542176,0.0673,0.1098,-0.2718,0.301
10.547763,0.0357,0.1910,-0.2145,0.289
10.551943,-0.0217,-0.0101,0.0080,0.025
10.557308,0.0052,-0.2757,0.3502,0.446
10.562194,0.0157,-0.2540,0.4122,0.484
10.567731,0.0309,-0.0531,0.2400,0.248
10.572459,-0.0068,0.0352,-0.0302,0.047
10.576736,-0.0184,0.0566,-0.1472,0.159
10.581603,0.0297,0.0798,-0.1718,0.192
10.586591,0.0776,0.0600,-0.0604,0.115
10.591685,-0.0053,-0.0951,0.2022,0.223
10.595794,-0.0161,-0.1302,0.2633,0.294
10.600524,-0.0176,-0.0035,0.1293,0.131
10.605908,-0.0074,0.0724,-0.0276,0.078
10.609936,-0.0548,0.1668,-0.2547,0.309
10.614874,0.0120,0.1417,-0.2639,0.300
10.621231,-0.0238,0.0575,-0.2660,0.273
10.625732,0.0049,-0.0261,0.0049,0.027
10.629795,-0.0450,-0.0496,0.0857,0.109
10.635237,-0.0329,-0.0183,-0.0099,0.039
10.639527,-0.0732,0.0531,-0.1187,0.149
10.645084,0.0676,0.0408,-0.0913,0.121
10.648884,0.0553,0.0001,-0.1858,0.194
10.653565,0.0788,0.0688,-0.3365,0.352
10.660108,-0.0142,0.1181,-0.1912,0.225
10.663300,-0.0684,0.0149,0.1193,0.138
10.668328,-0.0699,-0.1349,0.3988,0.427
10.673429,-0.0359,-0.1291,0.3650,0.389
10.677768,0.0311,-0.0402,0.1389,0.148
10.684120,0.0406,0.0147,-0.0450,0.062
10.687989,0.0190,0.0573,-0.1871,0.197
10.692831,-0.0763,0.1114,-0.3093,0.337
10.697238,-0.0549,0.1653,-0.3286,0.372
10.701771,-0.0246,0.2306,-0.2388,0.333
10.707077,-0.0304,0.1887,-0.1472,0.241
10.711870,0.0159,0.0593,-0.0088,0.062
10.716323,0.0193,0.0070,0.0954,0.098
10.722079,0.0014,-0.0284,0.1083,0.112
10.726334,-0.0588,-0.1395,0.0785,0.171
10.730910,-0.0376,-0.1382,0.1035,0.177
10.736548,-0.0851,-0.1678,0.1618,0.248
10.740515,-0.0155,-0.1854,0.2242,0.291
10.745475,0.0155,-0.0818,0.1032,0.133
10.750948,0.0317,0.0400,-0.0332,0.061
10.756130,0.0099,0.0611,-0.0949,0.113
10.760583,-0.0119,0.0654,-0.0991,0.119
10.765405,0.0381,0.0174,-0.0559,0.070
10.770808,-0.0217,-0.1276,-0.0399,0.135
10.774723,0.1228,0.2060,-0.2725,0.363
10.780557,0.1929,0.2376,-0.1731,0.352
10.784745,0.0132,-0.0801,0.0302,0.087
10.789406,0.0178,-0.1269,0.2443,0.276
10.794393,0.0582,-0.0974,0.3316,0.350
10.798620,0.0152,-0.1085,0.3566,0.373
10.804770,-0.0346,-0.1313,0.2532,0.287
10.808474,-0.0442,0.0195,-0.0681,0.083
10.813514,-0.0800,0.2047,-0.2970,0.369
10.818822,-0.0945,0.0608,-0.3129,0.332
10.823925,-0.0852,0.1033,-0.1555,0.205
10.828204,-0.0852,-0.0564,0.0170,0.104
10.832493,-0.0043,-0.0866,0.0933,0.127
10.838123,0.0001,-0.1879,0.1069,0.216
10.843091,0.1969,0.2079,-0.1712,0.334
10.847871,-0.0108,0.0042,-0.0768,0.078
10.851946,-0.1878,-0.4970,0.2631,0.593
10.856423,-0.1736,-0.3056,0.2890,0.455
10.861069,-0.1837,0.1052,0.0201,0.213
10.866082,-0.0157,0.0093,-0.0425,0.046
10.871084,0.0012,0.0851,-0.2569,0.271
10.876509,0.0558,0.2363,-0.3437,0.421
10.881263,0.0171,0.0706,-0.2138,0.226
10.885718,0.0901,0.1888,-0.0322,0.212
10.890371,0.0606,0.1185,0.0506,0.142
10.895061,0.0126,-0.1888,0.2352,0.302
10.899638,0.0764,-0.0637,0.2405,0.260
10.905078,0.0063,0.1934,0.0628,0.203
10.910996,0.0933,0.1801,-0.1469,0.250
10.914660,0.0769,0.2051,-0.2877,0.362
10.920117,0.1606,0.2845,-0.2976,0.442
10.924435,-0.1554,0.0213,-0.2285,0.277
10.929746,0.0516,-0.3466,0.3887,0.523
10.934728,0.0293,-0.0017,0.2648,0.266
10.938942,0.0544,-0.0489,0.0798,0.108
10.943688,-0.0548,0.0684,-0.1414,0.166
10.948385,0.0744,0.2844,-0.2604,0.393
10.954100,0.0779,-0.1404,0.1768,0.239
10.958696,-0.1575,-0.5334,0.4499,0.715
10.963447,-0.4344,-0.4481,0.2573,0.675
10.968745,-0.1728,0.0829,-0.0759,0.206
10.973634,-0.0365,0.0633,-0.0121,0.074
10.977685,-0.0295,0.0890,-0.1935,0.215
10.983168,0.0482,0.1407,-0.2644,0.303
10.987943,0.1725,0.1920,-0.2513,0.360
10.991974,0.2558,0.2215,-0.2356,0.412
10.997270,0.2109,0.0345,-0.0184,0.214
11.002484,-0.1420,-0.1915,0.0658,0.247
11.006492,-0.2999,-0.1733,0.0274,0.347
11.011405,-0.3263,-0.0674,-0.0564,0.338
11.016375,-0.1744,-0.0264,-0.1517,0.233
11.020796,-0.0022,0.0047,-0.1371,0.137
11.026393,0.0715,-0.0074,-0.1227,0.142
11.030809,0.0857,-0.0716,-0.0322,0.116
11.036582,0.0787,-0.1212,0.0699,0.161
11.040402,-0.0113,-0.0398,0.1449,0.151
11.045142,-0.0321,-0.0136,0.1534,0.157
11.050157,0.0685,0.0243,0.1906,0.204
11.055336,0.0474,-0.0830,0.1848,0.208
11.059694,0.0809,0.0100,0.0725,0.109
11.064832,0.0690,0.0738,-0.0743,0.125
11.070495,0.0262,0.0897,-0.0720,0.118
11.074268,0.0502,0.0294,0.1654,0.175
11.082107,0.0025,-0.0540,0.1918,0.199
11.084598,0.1262,0.0081,0.0310,0.130
11.088456,0.1945,0.0744,0.1168,0.239
11.093623,0.0682,-0.1165,0.1785,0.224
11.098275,-0.0477,-0.1324,0.2017,0.246
11.103590,-0.1490,0.0443,-0.0221,0.157
11.108077,-0.0767,0.2102,-0.1608,0.276
11.112851,0.0095,0.0850,-0.1416,0.165
11.117593,0.1407,-0.0844,0.0364,0.168
11.123782,0.0383,-0.0649,-0.0169,0.077
11.127723,0.0482,0.0067,0.0678,0.083
11.132290,-0.1488,-0.0030,0.0254,0.151
11.137861,-0.1595,0.1111,-0.2133,0.289
11.142710,-0.0086,0.1007,-0.0822,0.130
11.146593,-0.0584,0.0049,-0.0115,0.060
11.151845,0.0633,-0.0236,0.0872,0.110
11.156836,0.0156,-0.0686,0.0688,0.098
11.162735,-0.0081,-0.0253,-0.0039,0.027
11.166204,-0.0079,0.0081,-0.0050,0.012
11.171283,-0.0198,0.0295,-0.0629,0.072
11.177332,0.0327,0.0506,-0.0637,0.088
11.181161,0.0180,0.0859,-0.1642,0.186
11.185612,0.0746,0.0496,-0.1098,0.142
11.190974,-0.0095,0.1135,-0.1841,0.216
11.195046,0.0162,0.0747,-0.1276,0.149
11.200093,-0.0822,0.0672,-0.2262,0.250
11.204661,0.0596,0.2736,-0.2141,0.352
11.209459,0.0657,-0.0680,0.1017,0.139
11.214187,-0.0444,-0.2003,0.2462,0.320
11.219323,-0.0470,-0.0963,0.1732,0.204
11.224260,-0.0692,0.1351,-0.1029,0.183
11.229532,0.0893,0.1771,-0.0938,0.219
11.234184,0.0313,-0.1353,0.1643,0.215
11.238959,-0.0187,-0.3336,0.2590,0.423
11.243656,-0.0088,-0.1694,0.2130,0.272
11.248110,-0.0298,-0.0779,0.1482,0.170
11.253692,-0.0436,-0.0203,-0.0185,0.052
11.258323,0.0042,0.0345,-0.1319,0.136
11.263780,-0.0031,0.1174,-0.2279,0.256
11.268061,-0.0054,0.1140,-0.2401,0.266
11.273259,-0.0879,-0.1102,-0.0506,0.150
11.277328,-0.0462,-0.2116,0.2182,0.307
11.282670,-0.0143,-0.0343,0.1979,0.201
11.287290,-0.0353,0.0015,0.1228,0.128
11.291557,0.0407,0.1298,-0.1414,0.196
11.297311,0.0829,0.1905,-0.2324,0.312
11.302419,0.1579,0.0774,-0.1088,0.207
11.306505,0.0618,0.0388,-0.0100,0.074
11.311152,-0.0479,-0.1373,0.0760,0.164
11.316770,-0.0240,-0.0102,0.0616,0.067
11.320607,-0.0361,0.1277,-0.0191,0.134
11.326283,0.0847,0.0556,-0.1207,0.158
11.331703,0.0123,0.0719,-0.0813,0.109
11.336373,0.0072,0.0073,-0.0469,0.048
11.341101,0.0329,-0.0116,0.0134,0.037
11.345290,-0.0080,-0.0115,0.0471,0.049
11.350522,-0.0460,-0.0612,0.1635,0.181
11.354914,0.0159,-0.0511,-0.0084,0.054
11.360142,0.0012,0.1109,-0.1005,0.150
11.364648,0.0057,0.0388,-0.1039,0.111
11.370272,-0.0540,-0.1799,0.1252,0.226
11.374396,0.0463,0.0448,0.0536,0.084
11.379659,-0.0130,-0.0839,0.1537,0.176
11.383927,-0.1360,-0.2400,0.2739,0.389
11.389666,0.0603,-0.0126,0.0066,0.062
11.393462,0.0227,-0.0032,0.0881,0.091
11.398283,-0.1335,-0.2004,0.1279,0.273
11.403522,-0.0991,0.0458,-0.0986,0.147
11.408616,-0.0132,0.1975,-0.2306,0.304
11.414073,0.1030,0.1769,-0.3068,0.369
11.418703,0.1785,0.0447,-0.0763,0.199
11.422267,-0.0532,-0.0862,0.0267,0.105
11.427971,0.0135,0.0855,0.0458,0.098
11.433188,-0.0510,0.0516,0.0840,0.111
11.437880,0.0086,-0.0722,0.1126,0.134
11.441863,0.0536,-0.0620,0.0723,0.109
11.447234,0.0130,-0.0568,0.0750,0.095
11.452939,-0.0655,-0.0373,0.0420,0.086
11.456547,-0.0699,0.0414,-0.0429,0.092
11.461309,-0.0933,0.0174,-0.0536,0.109
11.466009,0.0333,-0.0136,0.0166,0.040
11.472006,0.0475,-0.0420,0.0340,0.072
11.476334,0.0309,-0.0299,0.0013,0.043
11.480280,-0.0334,-0.0201,-0.0409,0.057
11.485499,-0.0522,-0.0009,-0.0924,0.106
11.491045,-0.0400,0.0466,-0.1177,0.133
11.494701,-0.0377,0.0629,-0.1736,0.188
11.499892,0.0739,0.1052,-0.0959,0.160
11.505559,0.0425,-0.0072,-0.0384,0.058
11.509824,-0.0390,0.0286,-0.0539,0.072
11.514503,0.1159,-0.0334,0.3351,0.356
11.519892,0.0545,-0.2495,0.4641,0.530
11.524487,0.0499,-0.2191,0.1954,0.298
11.529825,-0.0146,0.1792,-0.1822,0.256
11.533601,0.0379,0.1421,-0.1867,0.238
11.539578,-0.0333,0.0459,-0.0608,0.083
11.543341,0.0409,-0.0163,-0.0735,0.086
11.548827,-0.0091,0.0407,-0.0222,0.047
11.553015,0.0174,-0.0238,-0.0357,0.046
11.558370,-0.0772,0.0167,0.0005,0.079
11.562677,-0.0714,-0.0501,-0.0351,0.094
11.567229,-0.1201,-0.0166,0.0124,0.122
11.572769,-0.0782,-0.0926,0.0190,0.123
11.577929,-0.0054,-0.0683,0.0543,0.087
11.582121,-0.0352,-0.1844,0.2199,0.289
11.587439,-0.0011,0.0069,0.0066,0.010
11.593869,0.0966,0.2014,-0.1170,0.252
11.596636,0.0629,0.1545,-0.2253,0.280
11.601627,0.0555,0.0606,-0.0904,0.122
11.607006,0.0173,0.0054,0.0483,0.052
11.611308,0.0055,-0.0184,0.0840,0.086
11.615969,0.0603,0.0315,0.1097,0.129
11.620856,-0.0135,0.0335,-0.0570,0.067
11.626170,0.0916,-0.0310,-0.0466,0.107
11.630348,-0.0179,0.0546,-0.1362,0.148
11.635159,0.0038,0.0850,-0.1658,0.186
11.640973,-0.0651,0.0771,-0.0977,0.140
11.645139,-0.0264,-0.0138,0.0459,0.055
11.649917,-0.0142,-0.0469,0.0932,0.105
11.654290,-0.0047,0.0010,0.0789,0.079
11.660548,0.0098,-0.0347,0.0712,0.080
11.665586,-0.0949,0.0084,-0.0597,0.112
11.670172,0.0029,0.0488,-0.1067,0.117
11.675008,-0.0262,0.1245,-0.1651,0.208
11.679661,0.0021,0.0453,-0.0925,0.103
11.683775,0.0042,-0.0714,0.0625,0.095
11.689917,0.0278,-0.0541,0.0905,0.109
11.693157,-0.0129,-0.0394,0.0516,0.066
11.698450,-0.0272,0.0061,-0.0205,0.035
11.703419,-0.0320,0.0203,-0.0992,0.106
11.707576,0.0158,-0.0012,-0.0228,0.028
11.712616,0.0301,-0.0179,0.0339,0.049
11.717580,0.0516,-0.0250,0.0687,0.089
11.722739,-0.0175,-0.0486,0.0201,0.055
11.727640,-0.0219,0.0016,-0.0284,0.036
11.732235,-0.0312,0.0419,-0.0455,0.069
11.736673,0.0047,0.0297,-0.0411,0.051
11.741715,0.0071,0.0033,0.0014,0.008
11.746346,0.0214,-0.0063,0.0149,0.027
11.751967,0.0077,-0.0421,0.0164,0.046
11.756171,0.0496,-0.0660,0.0229,0.086
11.761421,0.1426,-0.1827,0.0914,0.249
11.766113,0.2316,-0.2608,0.1214,0.369
11.770972,0.1229,-0.1722,0.0444,0.216
11.775550,0.0829,0.0727,0.0276,0.114
11.781415,-0.1581,0.2306,-0.0584,0.286
11.785193,-0.2336,0.3096,-0.1082,0.403
11.790000,-0.3302,0.3342,-0.1107,0.483
11.795586,-0.2852,0.4896,-0.0844,0.573
11.799400,-0.1859,0.1855,0.1082,0.284
11.804659,-0.0457,-0.3136,0.1825,0.366
11.809904,0.4000,-0.2798,0.1093,0.500
11.814805,0.4643,-0.1187,-0.0792,0.486
11.819741,0.2099,-0.1561,-0.2069,0.334
11.823965,-0.1933,-0.1025,-0.0986,0.240
11.829509,-0.1452,0.4518,-0.0791,0.481
11.833218,-0.2728,-0.0289,0.1426,0.309
11.839049,0.0312,-0.5819,0.6119,0.845
11.843579,0.0333,-0.0690,0.2178,0.231
11.848441,0.0039,0.2214,-0.0844,0.237
11.853518,0.0130,-0.0106,-0.0549,0.057
11.857714,-0.0399,0.0680,-0.2794,0.290
11.862757,0.1097,0.0414,-0.1504,0.191
11.867248,-0.0452,-0.1774,0.0721,0.197
11.871864,-0.0374,-0.2116,0.1411,0.257
11.877792,0.0269,0.0181,0.0886,0.094
11.882522,0.0452,0.2721,-0.0922,0.291
11.886754,0.0610,0.1917,-0.2359,0.310
11.891611,0.0290,-0.0021,-0.2863,0.288
11.896456,0.0683,0.2214,-0.3366,0.409
11.901304,0.0309,0.2768,-0.3338,0.435
11.906671,-0.0432,-0.0435,0.0381,0.072
11.911158,-0.1495,-0.7198,0.7690,1.064
11.917185,-0.1266,0.0316,0.3127,0.339
11.921594,0.2287,-0.2727,0.3133,0.474
11.925216,-0.1153,0.1238,-0.1136,0.204
11.930893,0.0255,0.3484,-0.2756,0.445
11.934873,-0.0103,-0.2433,-0.0472,0.248
11.940308,0.0066,-0.1013,0.1795,0.206
11.945007,0.0425,0.1583,0.0339,0.167
11.949996,0.0161,-0.1256,0.0884,0.154
11.955637,-0.0554,0.0987,-0.1706,0.205
11.958849,0.1208,0.1145,-0.2028,0.262
11.963681,0.0010,0.1088,-0.3889,0.404
11.970285,0.2103,0.0247,-0.2904,0.359
11.975094,-0.1830,-0.1465,0.2871,0.371
11.978137,0.0113,-0.1430,0.3419,0.371
11.983497,0.0208,0.0243,0.1641,0.167
11.989565,-0.0053,-0.0543,0.1109,0.124
11.993211,-0.0217,0.0269,-0.1054,0.111
11.998162,0.0761,0.0503,-0.0259,0.095
12.003504,0.0212,0.0332,-0.2027,0.207
12.007477,0.1190,-0.1121,0.1363,0.213
12.013200,-0.1644,-0.0186,0.0523,0.173
12.017501,0.0032,0.0694,-0.0191,0.072
12.021631,0.0034,0.0166,-0.0043,0.017
12.026723,0.0441,-0.0217,0.0174,0.052
12.032592,0.0347,-0.0454,0.1079,0.122
12.036221,0.0160,-0.0523,0.0243,0.060
12.042397,-0.0361,0.0336,-0.0182,0.053
12.045867,0.0049,0.0356,-0.0676,0.077
12.050866,-0.0330,0.0186,-0.1078,0.114
12.056351,-0.0516,0.0920,-0.2934,0.312
12.060262,-0.0612,0.1839,-0.4182,0.461
12.065401,-0.0043,0.1540,-0.3069,0.343
12.071689,0.0002,0.0674,-0.1233,0.141
12.076442,-0.0360,0.0622,-0.0914,0.116
12.080981,-0.0746,0.1402,-0.1381,0.210
12.086184,-0.0082,0.0181,-0.0612,0.064
12.089849,-0.0804,0.0515,-0.0810,0.125
12.094143,0.1713,-0.0366,0.3892,0.427
12.100308,-0.0201,-0.2310,0.5681,0.614
12.103975,-0.0272,-0.2029,0.2707,0.339
12.108680,-0.0394,0.0126,0.1137,0.121
12.114721,-0.0135,0.0363,-0.1680,0.172
12.118750,0.0383,0.0789,-0.0557,0.104
12.123892,-0.0529,-0.0379,0.0111,0.066
12.128566,0.1041,-0.0826,0.1558,0.205
12.133163,-0.0037,-0.0819,0.1501,0.171
12.138757,0.0486,-0.1073,0.1990,0.231
12.144209,-0.0825,-0.0352,0.0699,0.114
12.148059,0.0369,0.0221,0.1029,0.112
12.152175,-0.0467,0.0172,0.0911,0.104
12.156998,0.0655,-0.0874,0.0648,0.127
12.161810,-0.0490,-0.0297,0.0127,0.059
12.166621,0.0204,0.0062,-0.0698,0.073
12.171335,-0.0629,-0.0034,0.0524,0.082
12.176673,-0.0314,-0.0010,-0.0238,0.039
12.182337,-0.0170,0.0798,-0.2563,0.269
12.186292,-0.0028,0.0744,-0.0336,0.082
12.190638,-0.0717,0.0121,-0.1581,0.174
12.195896,-0.0480,0.2115,-0.4612,0.510
12.201308,0.0686,-0.0086,-0.0881,0.112
12.206144,-0.0222,-0.0822,0.1608,0.182
12.209979,0.0493,-0.0103,0.1327,0.142
12.215344,0.0276,-0.1029,0.1856,0.214
12.219679,-0.0510,-0.0260,0.0979,0.113
12.224897,0.0016,0.0478,-0.0624,0.079
12.229529,0.0632,-0.0167,-0.0006,0.065
12.234590,0.0415,-0.0142,-0.0272,0.052
12.239192,0.0389,0.0024,-0.0227,0.045
12.243936,-0.0087,0.0071,-0.0087,0.014
12.248696,-0.0087,0.0142,0.0003,0.017
12.254095,-0.0277,0.0141,-0.0169,0.035
12.259048,-0.0181,-0.0003,-0.0555,0.058
12.263144,-0.0039,0.0188,-0.0508,0.054
12.268104,-0.0018,0.0234,-0.0369,0.044
12.273861,0.0005,0.0019,-0.0279,0.028
12.277635,0.0050,-0.0076,0.0001,0.009
12.282719,-0.0143,0.0092,0.0113,0.020
12.288087,0.0118,-0.0170,0.0083,0.022
12.292085,0.0282,-0.0144,0.0053,0.032
12.296956,-0.0007,-0.0191,-0.0095,0.021
12.303669,-0.0032,-0.0022,-0.0121,0.013
12.309006,0.0086,-0.0141,0.0043,0.017
12.311489,0.0085,-0.0163,0.0185,0.026
12.317443,0.0013,-0.0233,0.0397,0.046
12.321733,0.0108,-0.0231,0.0468,0.053
12.326303,0.0106,-0.0134,0.0445,0.048
12.332176,-0.0179,-0.0228,0.0540,0.061
12.335997,-0.0083,-0.0083,0.0304,0.033
12.340558,-0.0058,-0.0082,0.0165,0.019
12.345486,-0.0035,0.0037,-0.0116,0.013
12.351104,0.0107,-0.0034,-0.0156,0.019
12.355519,-0.0107,0.0109,-0.0197,0.025
12.359962,-0.0059,0.0132,-0.0095,0.017
12.364499,-0.0057,0.0059,-0.0161,0.018
12.370743,0.0039,-0.0012,-0.0465,0.047
12.375030,0.0015,0.0201,-0.0410,0.046
12.380150,0.0016,0.0105,-0.0236,0.026
12.383986,-0.0008,-0.0110,-0.0112,0.016
12.388738,-0.0031,-0.0038,-0.0036,0.006
12.393755,0.0159,-0.0085,0.0014,0.018
12.399331,-0.0055,-0.0013,-0.0007,0.006
12.403421,-0.0007,0.0058,-0.0266,0.027
12.407875,-0.0006,0.0010,-0.0142,0.014
12.412948,-0.0266,-0.0157,-0.0138,0.034
12.417935,0.0023,0.0224,-0.0135,0.026
12.423214,-0.0094,-0.0039,-0.0036,0.011
12.427274,-0.0139,0.0032,0.0204,0.025
12.432766,0.0053,-0.0135,-0.0034,0.015
12.437167,-0.0209,0.0151,-0.0150,0.030
12.441841,-0.0063,0.0007,-0.0100,0.012
12.447201,-0.0134,0.0149,-0.0026,0.020
12.451770,-0.0084,0.0077,-0.0048,0.012
12.456626,-0.0060,-0.0043,-0.0023,0.008
12.462317,0.0059,-0.0066,0.0049,0.010
12.466381,-0.0131,0.0101,-0.0235,0.029
12.471525,0.0179,0.0266,-0.0328,0.046
12.476191,0.0034,0.0264,-0.0135,0.030
12.481658,0.0059,0.0214,-0.0086,0.024
12.487075,0.0130,0.0022,0.0105,0.017
12.490761,0.0059,0.0022,0.0057,0.008
12.495826,0.0010,0.0140,0.0033,0.014
12.501598,0.0082,-0.0003,0.0153,0.017
12.506039,0.0035,-0.0004,0.0034,0.005
12.509833,0.0106,0.0020,0.0130,0.017
12.514501,0.0011,-0.0336,0.0201,0.039
12.520688,-0.0011,-0.0168,0.0273,0.032
12.524392,-0.0010,-0.0095,-0.0084,0.013
12.528963,0.0015,0.0071,0.0061,0.009
12.534263,0.0136,0.0070,0.0134,0.020
12.539018,-0.0126,-0.0216,0.0088,0.026
12.543784,0.0067,-0.0285,0.0210,0.036
12.548661,0.0068,0.0097,0.0235,0.026
12.553299,-0.0169,0.0024,0.0236,0.029
12.557975,-0.0072,-0.0119,-0.0025,0.014
12.563108,-0.0093,0.0024,-0.0118,0.015
12.567586,-0.0020,0.0190,0.0027,0.019
12.573397,-0.0209,-0.0002,0.0005,0.021
12.577630,-0.0111,-0.0121,0.0221,0.027
12.582877,0.0081,0.0189,0.0054,0.021
12.587697,-0.0132,0.0092,-0.0017,0.016
12.593756,-0.0107,0.0044,0.0055,0.013
12.600340,0.0012,0.0233,0.0151,0.028
12.602009,0.0131,-0.0006,0.0104,0.017
12.607049,0.0011,-0.0243,0.0128,0.028
12.623916,-0.0013,-0.0241,0.0224,0.033
12.624791,0.0011,-0.0097,0.0129,0.016
12.625276,-0.0084,-0.0025,-0.0037,0.010
12.626199,-0.0154,0.0023,0.0108,0.019
12.631113,-0.0130,-0.0215,0.0062,0.026
12.636445,-0.0059,-0.0355,0.0228,0.043
12.640488,0.0037,-0.0067,0.0038,0.009
12.646225,0.0060,0.0029,0.0086,0.011
12.651667,0.0082,0.0171,0.0158,0.025
12.655487,-0.0158,0.0123,0.0038,0.020
12.661128,-0.0182,0.0099,-0.0032,0.021
12.665996,0.0007,0.0051,-0.0225,0.023
12.670286,0.1193,0.0170,-0.0413,0.127
12.674803,-0.0266,0.0097,-0.0649,0.071
12.679974,0.0067,-0.0165,-0.0241,0.030
12.685302,0.0114,0.0145,0.0256,0.032
12.689542,0.0136,0.0168,-0.0105,0.024
12.694099,0.0016,-0.0166,-0.0203,0.026
12.699433,-0.0151,-0.0046,-0.0018,0.016
12.704124,0.0135,0.0240,-0.0261,0.038
12.708393,0.0038,0.0048,-0.0241,0.025
12.713678,-0.0009,0.0118,-0.0151,0.019
12.718389,0.0109,-0.0096,-0.0038,0.015
12.723624,0.0037,-0.0072,0.0216,0.023
12.728756,0.0107,-0.0024,0.0300,0.032
12.733282,-0.0013,-0.0071,0.0052,0.009
12.738278,0.0081,0.0001,-0.0194,0.021
12.742229,-0.0087,0.0167,-0.0225,0.029
12.747963,0.0008,0.0047,-0.0138,0.015
12.752104,-0.0040,0.0118,-0.0124,0.018
12.757420,-0.0088,0.0140,-0.0085,0.019
12.761983,-0.0136,-0.0027,-0.0190,0.023
12.766610,0.0149,0.0140,-0.0033,0.021
12.771597,0.0005,0.0044,0.0101,0.011
12.775879,0.0005,-0.0147,0.0281,0.032
12.782238,-0.0090,-0.0170,0.0056,0.020
12.786138,-0.0160,-0.0098,0.0072,0.020
12.790775,-0.0016,-0.0026,0.0087,0.009
12.796222,-0.0087,-0.0144,0.0197,0.026
12.800712,0.0056,-0.0238,0.0141,0.028
12.805330,-0.0088,-0.0070,0.0109,0.016
12.810175,0.0102,0.0002,-0.0017,0.010
12.814943,-0.0043,0.0073,0.0192,0.021
12.820802,0.0003,0.0263,0.0066,0.027
12.824642,-0.0211,-0.0024,0.0179,0.028
12.829957,-0.0092,0.0000,0.0173,0.020
12.833903,-0.0164,-0.0047,0.0167,0.024
12.839433,-0.0092,-0.0070,-0.0005,0.012
12.845687,-0.0165,0.0026,0.0062,0.018
12.848890,-0.0094,-0.0187,0.0035,0.021
12.854690,0.0144,0.0123,0.0055,0.020
12.858157,-0.0001,-0.0020,-0.0185,0.019
12.864142,-0.0072,0.0004,-0.0068,0.010
12.869548,0.0093,0.0004,0.0002,0.009
12.874527,0.0234,0.0028,-0.0024,0.024
12.877330,-0.0076,-0.0163,-0.0292,0.034
12.884638,-0.0340,0.1549,-0.3426,0.378
12.887875,0.1637,0.0229,-0.0453,0.171
12.892400,-0.0273,-0.1174,0.5444,0.558
12.898080,-0.1363,-0.1331,0.2122,0.285
12.902524,-0.0309,0.0723,-0.2838,0.294
12.906629,0.0357,0.0836,-0.1509,0.176
12.911418,0.0164,-0.0002,0.2231,0.224
12.916023,-0.0454,-0.0904,0.2498,0.270
12.921988,-0.0522,-0.0730,0.0862,0.125
12.926118,-0.0045,0.0867,-0.1331,0.159
12.930491,0.0548,0.1026,-0.1846,0.218
12.935136,0.0403,-0.0028,-0.1528,0.158
12.940413,0.0043,-0.0004,-0.0666,0.067
12.944833,0.0044,0.0233,-0.0239,0.034
12.950492,-0.0170,0.0041,-0.0053,0.018
12.956593,-0.0144,0.0016,-0.0035,0.015
12.961871,-0.0071,0.0206,-0.0066,0.023
12.964917,-0.0024,0.0038,-0.0120,0.013
12.970218,-0.0048,0.0038,-0.0078,0.010
12.974886,0.0093,-0.0176,-0.0085,0.022
12.979374,-0.0146,0.0182,0.0025,0.023
12.984067,-0.0170,-0.0010,-0.0198,0.026
12.989610,-0.0098,0.0062,-0.0134,0.018
12.993910,-0.0002,0.0037,-0.0119,0.012
12.999015,0.0141,-0.0153,0.0229,0.031
13.003223,0.0046,-0.0058,0.0046,0.009
13.007982,-0.0289,0.0370,-0.2817,0.286
13.013080,0.1139,0.1032,-0.1188,0.194
13.017771,0.0492,-0.0261,0.2087,0.216
13.023917,-0.0199,-0.1470,0.2914,0.327
13.027314,-0.0529,-0.1078,0.1717,0.210
13.032662,-0.0383,0.0213,-0.0494,0.066
13.037891,0.0238,0.0970,-0.1997,0.223
13.042419,0.0616,0.0249,-0.1494,0.164
13.046603,0.0401,-0.0134,0.0195,0.047
13.052992,0.0162,-0.0632,0.1752,0.187
13.056849,-0.0384,-0.0675,0.2158,0.229
13.062017,-0.0547,-0.0337,0.1684,0.180
13.066011,-0.0543,-0.0097,0.0787,0.096
13.071167,-0.0185,0.0285,-0.0717,0.079
13.076765,0.0933,-0.0288,-0.1241,0.158
13.080531,-0.0071,-0.0191,-0.1542,0.156
13.086000,0.0406,0.0000,-0.0629,0.075
13.091140,-0.0048,0.0024,0.1060,0.106
13.095887,-0.0618,-0.0237,0.1098,0.128
13.100536,0.0075,-0.0330,0.0328,0.047
13.104749,-0.0044,0.0100,-0.0293,0.031
13.110622,0.0147,0.0170,-0.0268,0.035
13.114890,-0.0426,0.0098,-0.0243,0.050
13.120170,-0.0164,-0.0045,0.0186,0.025
13.124684,-0.0118,-0.0186,0.0493,0.054
13.129587,-0.0118,-0.0018,0.0323,0.034
13.133853,0.0001,-0.0089,-0.0485,0.049
13.139002,-0.0023,0.0173,-0.0385,0.042
13.143893,-0.0048,-0.0018,-0.0286,0.029
13.149063,-0.0145,-0.0017,-0.0091,0.017
13.152978,-0.0098,-0.0016,0.0077,0.013
13.158477,0.0020,0.0056,0.0198,0.021
13.163138,0.0089,-0.0300,0.0223,0.038
13.167624,-0.0055,-0.0226,0.0177,0.029
13.173299,0.0038,-0.0105,0.0038,0.012
13.178066,0.0036,-0.0151,-0.0030,0.016
13.183814,-0.0037,0.0017,-0.0050,0.006
13.188862,0.0033,0.0113,0.0025,0.012
13.191645,-0.0088,0.0112,-0.0019,0.014
13.198068,-0.0088,-0.0031,0.0076,0.012
13.201989,-0.0065,0.0777,-0.4055,0.413
13.206259,0.1218,0.1578,-0.4068,0.453
13.212648,-0.0120,-0.0881,0.0904,0.127
13.217278,-0.0475,0.0099,0.6119,0.614
13.221209,-0.1567,-0.0897,0.3527,0.396
13.225525,-0.0061,-0.0937,-0.1014,0.138
13.231481,0.0530,0.1493,-0.2764,0.319
13.235143,0.1308,0.1101,-0.0941,0.195
13.241228,0.0063,-0.1211,0.0702,0.140
13.245406,-0.0317,-0.0987,0.0528,0.116
13.250634,-0.0198,0.0755,-0.0288,0.083
13.254764,-0.0176,0.0749,-0.1026,0.128
13.259059,0.0560,-0.0325,0.0023,0.065
13.264415,0.0675,-0.0631,0.0637,0.112
13.268980,-0.0114,-0.0365,-0.0150,0.041
13.274445,0.0005,0.0849,0.0253,0.089
13.278717,-0.0305,0.0154,0.2910,0.293
13.284042,-0.0731,-0.1770,0.3547,0.403
13.288806,-0.1608,-0.1445,-0.5308,0.573
13.293679,0.2180,0.2342,-0.0208,0.321
13.298095,-0.1685,0.1063,-0.1450,0.246
13.304015,-0.1282,0.0086,-1.5163,1.522
13.308214,0.7978,-0.0584,0.1737,0.819
13.313178,-0.5269,-0.0127,0.4475,0.691
13.317947,0.1378,-0.2572,0.1591,0.332
13.323225,-0.1246,-0.0603,-0.0936,0.167
13.327114,0.1352,0.3841,-0.0001,0.407
13.332215,-0.0631,-0.0773,0.0473,0.110
13.338632,0.0042,-0.2548,0.1206,0.282
13.341568,-0.0029,0.0750,0.0152,0.077
13.346740,0.0209,0.0981,-0.0276,0.104
13.352476,-0.0552,-0.0808,0.0009,0.098
13.356455,-0.0167,0.0172,-0.1466,0.149
13.361242,0.0524,0.0859,-0.1649,0.193
13.365924,0.0141,0.0044,-0.0808,0.082
13.371141,0.0309,-0.0005,0.0876,0.093
13.376085,-0.0857,0.0303,-0.0820,0.122
13.380815,0.0625,-0.0175,0.1057,0.124
13.385694,-0.0756,-0.0815,0.2065,0.235
13.390713,0.0153,0.0236,0.0548,0.062
13.395726,-0.0229,0.0211,-0.0910,0.096
13.400375,0.0082,0.0042,-0.0408,0.042
13.404517,0.0057,0.0089,-0.0056,0.012
13.410352,0.0009,-0.0220,-0.0180,0.028
13.414390,0.0033,-0.0100,0.0196,0.022
13.419473,0.0247,0.0328,0.0426,0.059
13.424471,0.0197,0.0159,0.0393,0.047
13.429571,-0.0231,-0.0080,0.0124,0.027
13.434191,-0.0111,0.0016,-0.0240,0.026
13.438671,0.0103,0.0372,-0.0362,0.053
13.445341,0.0268,0.0084,-0.0150,0.032
13.448496,0.0004,-0.0131,0.0368,0.039
13.453991,-0.0139,-0.0011,0.0527,0.054
13.458647,-0.0186,0.0298,0.0185,0.040
13.463547,-0.0136,0.0153,-0.0036,0.021
13.467758,-0.0040,-0.0181,0.0007,0.019
13.472997,-0.0111,0.0058,0.0073,0.014
13.477095,-0.0134,-0.0085,0.0115,0.020
13.481565,0.0010,-0.0061,0.0252,0.026
13.486924,0.0035,-0.0132,0.0079,0.016
13.491501,-0.0012,0.0082,0.0075,0.011
13.496306,-0.0179,-0.0156,-0.0001,0.024
13.502457,-0.0082,0.0059,0.0042,0.011
13.506078,0.0061,-0.0060,0.0014,0.009
13.511575,-0.0059,-0.0012,0.0200,0.021
13.515997,-0.0059,0.0012,0.0123,0.014
13.520231,-0.0106,-0.0012,-0.0025,0.011
13.525435,-0.0153,0.0035,0.0209,0.026
13.530513,-0.0009,0.0035,0.0205,0.021
13.534959,0.0015,-0.0084,0.0296,0.031
13.541071,0.0063,-0.0060,0.0386,0.040
13.544770,-0.0079,-0.0369,0.0240,0.045
13.550584,-0.0007,-0.0128,0.0571,0.059
13.554409,-0.0124,-0.0151,0.0472,0.051
13.561225,-0.0121,-0.0056,0.0207,0.025
13.564545,-0.0072,0.0158,-0.0340,0.038
13.569726,-0.0095,0.0252,-0.0478,0.055
13.574016,-0.0189,0.0036,0.0025,0.019
13.579047,-0.0212,0.0013,0.0120,0.024
13.584448,-0.0068,0.0060,0.0026,0.009
13.588751,0.0122,0.0131,-0.0139,0.023
13.593259,-0.0116,0.0343,-0.0041,0.036
13.598048,0.0146,0.0008,-0.0157,0.021
13.603679,0.0097,0.0008,-0.0058,0.011
13.607855,0.0049,-0.0063,0.0135,0.016
13.612308,0.0001,0.0009,0.0043,0.004
13.617441,0.0143,-0.0157,0.0021,0.021
13.622698,-0.0072,0.0129,0.0095,0.018
13.627219,0.0023,-0.0038,0.0098,0.011
13.632791,0.0094,-0.0132,0.0290,0.033
13.637363,0.0093,0.0082,0.0148,0.019
13.641288,-0.0074,0.0106,-0.0064,0.014
13.646504,0.0021,-0.0061,-0.0132,0.015
13.651275,-0.0003,0.0129,-0.0010,0.013
13.656764,0.0211,-0.0109,0.0135,0.027
13.660859,0.0162,-0.0156,0.0183,0.029
13.665980,-0.0006,0.0392,-0.0007,0.039
13.671268,-0.0102,0.0151,-0.0219,0.029
13.675484,0.0112,0.0032,-0.0169,0.021
13.680623,0.0015,-0.0111,0.0000,0.011
13.685205,-0.0128,0.0104,-0.0237,0.029
13.690558,-0.0080,0.0008,-0.0187,0.020
13.694790,0.0252,0.0080,-0.0495,0.056
13.699870,-0.0082,0.0174,-0.0347,0.040
13.704326,0.0061,0.0101,-0.0059,0.013
13.710391,0.0082,0.0030,0.0109,0.014
13.714156,-0.0086,-0.0207,0.0181,0.029
13.718684,-0.0063,-0.0063,0.0324,0.034
13.724213,-0.0040,0.0010,0.0299,0.030
13.729597,0.0006,0.0105,0.0345,0.036
13.734183,-0.0043,0.0033,0.0154,0.016
13.738089,-0.0115,0.0010,0.0012,0.012
13.743665,-0.0137,-0.0085,-0.0033,0.017
13.748121,-0.0137,-0.0061,-0.0103,0.018
13.752746,-0.0160,-0.0108,-0.0077,0.021
13.758656,0.0125,0.0012,0.0069,0.014
13.763379,0.0196,-0.0154,0.0310,0.040
13.767798,-0.0185,0.0037,0.0264,0.032
13.772589,-0.0066,0.0014,0.0099,0.012
13.776927,-0.0018,-0.0034,0.0056,0.007
13.781800,-0.0017,-0.0010,0.0108,0.011
13.786376,0.0079,-0.0057,0.0112,0.015
13.791728,0.0055,-0.0104,0.0116,0.017
13.796176,-0.0064,-0.0222,0.0120,0.026
13.801659,-0.0015,-0.0149,-0.0067,0.016
13.806348,0.0008,0.0161,-0.0276,0.032
13.811800,-0.0039,0.0088,-0.0104,0.014
13.815484,-0.0037,-0.0079,-0.0100,0.013
13.820607,-0.0060,0.0017,0.0045,0.008
13.825559,-0.0011,-0.0055,-0.0001,0.006
13.831282,0.0155,0.0112,-0.0332,0.038
13.836089,0.0012,0.0016,-0.0115,0.012
13.840330,0.0109,0.0086,0.0028,0.014
13.844578,0.0015,0.0180,-0.0327,0.037
13.851185,-0.0079,-0.0012,-0.0064,0.010
13.855273,-0.0006,0.0107,0.0150,0.018
13.859667,-0.0006,-0.0108,0.0054,0.012
13.863946,-0.0052,0.0011,0.0005,0.005
13.868919,-0.0051,-0.0084,0.0100,0.014
13.875591,-0.0075,0.0059,0.0075,0.012
13.878045,0.0045,0.0011,0.0097,0.011
13.883876,-0.0050,0.0130,0.0192,0.024
13.888164,-0.0002,0.0057,0.0071,0.009
13.893220,-0.0001,0.0080,0.0214,0.023
13.898549,-0.0120,-0.0039,0.0355,0.038
13.902464,0.0238,-0.0063,0.0235,0.034
13.907633,-0.0048,-0.0157,0.0281,0.033
13.913257,-0.0071,-0.0132,0.0115,0.019
13.917358,-0.0094,-0.0131,0.0259,0.030
13.922190,0.0050,-0.0035,0.0283,0.029
13.926834,-0.0188,-0.0058,0.0234,0.031
13.931370,-0.0091,0.0037,0.0189,0.021
13.938126,0.0028,-0.0082,0.0236,0.025
13.941624,-0.0114,-0.0034,0.0095,0.015
13.945878,0.0101,0.0109,-0.0212,0.026
13.951333,0.0171,0.0322,-0.0351,0.051
13.956480,-0.0043,-0.0109,-0.0038,0.012
13.960538,0.0314,-0.0226,0.0392,0.055
13.965852,0.0098,0.0298,-0.0109,0.033
13.970470,-0.0142,0.0034,0.0036,0.015
13.976121,-0.0118,-0.0203,0.0085,0.025
13.980575,0.0074,-0.0059,0.0061,0.011
13.985009,0.0238,-0.0082,0.0134,0.028
13.990132,0.0971,-0.0294,-0.0179,0.103
13.994348,0.0349,0.0253,-0.1671,0.173
14.000934,-0.0195,0.0250,-0.1133,0.118
14.004221,-0.0715,-0.0038,0.0417,0.083
14.010740,-0.0069,0.0580,0.0510,0.078
14.014676,0.0455,0.0100,-0.0417,0.063
14.018530,0.0600,-0.0804,-0.1147,0.152
14.024077,0.0385,0.0103,-0.0858,0.095
14.029538,-0.0451,0.0981,0.0479,0.118
14.033318,-0.1137,-0.0237,0.4161,0.432
14.037801,-0.2128,-0.1041,0.5705,0.618
14.044435,-0.0951,-0.1696,0.3312,0.384
14.049680,-0.0312,0.1788,-0.2190,0.284
14.052695,0.2034,0.1656,-0.3784,0.460
14.058159,0.1206,0.0623,-0.3485,0.374
14.063210,0.0415,-0.1021,-0.0364,0.116
14.067703,-0.0894,-0.1202,0.0924,0.176
14.071874,-0.0605,0.0589,0.0161,0.086
14.077636,0.0253,0.0656,-0.0287,0.076
14.081587,0.0418,-0.0632,-0.0470,0.089
14.086807,0.0894,-0.0746,-0.0985,0.153
14.091135,0.0416,0.0066,-0.0567,0.071
14.096112,0.0323,-0.0292,0.0702,0.083
14.101099,-0.0367,0.0185,0.1370,0.143
14.105698,-0.0410,-0.0268,0.1081,0.119
14.111094,-0.0453,0.0114,0.0176,0.050
14.115767,-0.0664,0.0375,-0.0555,0.094
14.120617,-0.0091,0.0729,-0.0425,0.085
14.125227,-0.0067,-0.0440,0.0107,0.046
14.130900,0.0506,-0.0936,0.1088,0.152
14.135674,0.0553,-0.0620,0.1278,0.152
14.139488,-0.0139,-0.0710,0.1206,0.141
14.144549,-0.0874,-0.0395,0.1326,0.164
14.148990,-0.0631,-0.0296,0.0781,0.105
14.154357,-0.0699,0.0016,0.0523,0.087
14.161907,-0.0625,0.0136,-0.0016,0.064
14.163653,0.0067,0.0491,-0.1171,0.127
14.168357,0.0421,0.1034,-0.2056,0.234
14.173971,0.0870,0.0265,-0.1224,0.153
14.178827,0.0200,0.0429,-0.1017,0.112
14.183332,0.0510,-0.0169,-0.0122,0.055
14.188329,0.0414,-0.0667,0.1216,0.145
14.192645,-0.0040,0.0170,0.0286,0.034
14.197566,-0.0085,0.0144,-0.1327,0.134
14.202784,0.0491,-0.0666,-0.1598,0.180
14.206862,0.0468,-0.0329,-0.0701,0.091
14.214329,0.0182,0.0979,-0.0122,0.100
14.217196,-0.0458,0.0091,0.0406,0.062
14.221377,-0.0620,-0.0289,0.0762,0.102
14.226147,-0.0306,0.0330,0.0166,0.048
14.231034,0.0291,0.0327,-0.0355,0.056
14.236450,0.0219,0.0704,-0.0516,0.090
14.245528,0.0337,0.0176,-0.0342,0.051
14.246229,-0.0282,-0.0395,0.0424,0.065
14.250686,-0.0185,-0.0274,0.0424,0.054
14.255725,-0.0016,0.0370,0.0235,0.044
14.260419,-0.0016,-0.0061,-0.0002,0.006
14.265424,0.0129,-0.0203,0.0024,0.024
14.270503,-0.0107,-0.0202,-0.0093,0.025
14.275325,-0.0177,-0.0106,0.0123,0.024
14.279892,-0.0104,0.0109,0.0054,0.016
14.285297,-0.0151,0.0061,0.0221,0.027
14.290053,-0.0195,-0.0154,0.0395,0.047
14.294152,0.1453,-0.2719,0.3529,0.469
14.300359,-0.0890,0.1151,-0.1391,0.201
14.304711,-0.0178,0.4919,-0.3323,0.594
14.310312,-0.1391,-0.2457,-0.0208,0.283
14.314298,0.0996,-0.1036,0.0939,0.172
14.318646,0.0608,0.0254,0.0984,0.118
14.330518,-0.0014,-0.0365,0.0865,0.094
14.330975,-0.0253,-0.0409,0.0245,0.054
14.333407,0.0004,0.1211,-0.0869,0.149
14.337287,-0.0144,0.1535,-0.1117,0.190
14.343445,-0.0096,-0.1374,0.0797,0.159
14.347731,-0.0073,-0.1647,0.0677,0.178
14.351818,0.0259,0.0931,0.0393,0.104
14.356817,0.0019,-0.0477,0.0822,0.095
14.361491,-0.0054,-0.0306,-0.0272,0.041
14.366569,0.0186,-0.0304,-0.0074,0.036
14.371984,0.0162,-0.1062,0.0450,0.116
14.376439,0.0305,0.1250,-0.0763,0.150
14.381358,0.1656,-0.0779,-0.0901,0.204
14.386103,0.0022,0.3526,-0.3362,0.487
14.391228,0.0138,0.0625,-0.1131,0.130
14.395913,-0.0836,-0.2301,0.0775,0.257
14.400702,0.0097,-0.0430,0.0409,0.060
14.405931,-0.0237,0.0856,-0.0026,0.089
14.410580,-0.0424,-0.0362,-0.0031,0.056
14.414862,-0.0039,-0.1025,0.0844,0.133
14.420726,0.0606,-0.0139,0.0455,0.077
14.424673,-0.0800,0.0123,0.0353,0.088
14.430157,0.0180,0.0478,-0.0010,0.051
14.435037,0.0369,0.0664,-0.0795,0.110
14.439365,0.0081,0.0089,-0.0342,0.036
14.445604,-0.1275,0.0587,-0.0819,0.163
14.448818,-0.0317,0.0108,-0.1061,0.111
14.453708,-0.0271,0.0061,-0.0797,0.084
14.458980,0.1396,-0.1199,0.1980,0.270
14.463680,0.0058,-0.0431,0.1366,0.143
14.468967,0.0202,-0.0214,0.0541,0.062
14.473588,-0.0108,-0.0331,-0.0441,0.056
14.478354,0.0321,0.0478,-0.0159,0.060
14.482571,-0.0108,0.0308,-0.0757,0.082
14.488127,-0.0300,0.0899,-0.1114,0.146
14.492982,-0.0517,0.0680,-0.1089,0.138
14.497289,0.0458,0.0129,-0.0517,0.070
14.501901,0.0097,-0.0656,0.0549,0.086
14.507125,-0.0239,-0.0484,0.0514,0.075
14.511598,-0.0122,0.0163,0.0172,0.027
14.516432,0.0018,0.0400,-0.0190,0.044
14.521438,-0.0199,-0.0292,-0.0147,0.038
14.526080,-0.0129,-0.0336,0.0063,0.037
14.531921,0.0059,-0.0047,0.0010,0.008
14.535912,-0.0253,-0.0094,0.0077,0.028
14.540887,-0.0111,-0.0211,0.0311,0.039
14.545925,0.0364,0.0147,-0.0073,0.040
14.550467,0.0289,-0.0329,0.0164,0.047
14.555098,-0.0237,-0.0184,0.0089,0.031
14.560313,-0.0069,-0.0016,-0.0032,0.008
14.565716,-0.0070,0.0246,-0.0080,0.027
14.570027,0.0168,0.0173,-0.0177,0.030
14.574973,0.0143,-0.0066,-0.0248,0.029
14.579842,0.0025,0.0053,-0.0056,0.008
14.584491,0.0026,-0.0162,-0.0153,0.022
14.589586,0.0051,0.0029,-0.0155,0.017
14.593951,0.0077,0.0123,-0.0299,0.033
14.599513,0.0030,-0.0092,-0.0015,0.010
14.603963,0.0149,-0.0021,-0.0303,0.034
14.608375,-0.0040,0.0050,-0.0234,0.024
14.613249,0.0031,0.0358,-0.0259,0.044
14.618458,0.0079,-0.0049,-0.0023,0.010
14.623602,-0.0015,-0.0144,0.0044,0.015
14.627533,-0.0015,0.0166,0.0040,0.017
14.632486,-0.0039,0.0236,-0.0154,0.028
14.637652,-0.0061,-0.0313,0.0200,0.038
14.642044,0.0130,-0.0144,0.0218,0.029
14.647337,0.0011,-0.0143,0.0236,0.028
14.651906,0.0037,0.0118,-0.0171,0.021
14.657146,-0.0723,0.0117,0.1040,0.127
14.661783,-0.0669,-0.0026,0.0316,0.074
14.666570,-0.0069,-0.0596,0.0644,0.088
14.671179,0.0169,-0.0045,0.0471,0.050
14.676196,-0.0308,0.0050,0.0347,0.047
14.681533,-0.0379,-0.0258,0.0342,0.057
14.685818,-0.0496,0.0053,0.0219,0.054
14.690818,0.0124,0.0243,0.0074,0.028
14.696221,0.0146,-0.0115,-0.0045,0.019
14.701017,0.0145,0.0076,0.0027,0.017
14.705465,0.0097,0.0241,-0.0138,0.029
14.710544,0.0121,-0.0070,-0.0184,0.023
14.714811,-0.0045,-0.0117,0.0032,0.013
14.720847,-0.0092,-0.0092,-0.0062,0.014
14.724878,-0.0113,-0.0092,0.0219,0.026
14.730278,-0.1115,-0.0375,-0.3129,0.334
14.734944,0.1571,0.3096,-0.3066,0.463
14.739397,0.1142,-0.1064,0.4414,0.468
14.744070,-0.2693,-0.2716,0.3757,0.536
14.749496,0.0646,-0.0294,0.1588,0.174
14.754475,0.0141,0.0635,-0.0985,0.118
14.758369,0.1165,-0.0012,-0.0547,0.129
14.764188,-0.0293,-0.0795,0.0103,0.085
14.768986,0.0943,0.0399,0.0130,0.103
14.773678,0.0057,0.0372,0.1034,0.110
14.777961,-0.0705,-0.0058,-0.0593,0.092
14.783360,-0.0084,0.0797,-0.1347,0.157
14.787266,0.0773,-0.0183,0.0087,0.080
14.792535,-0.0303,-0.0253,0.0133,0.042
14.798352,0.0220,0.0130,-0.0678,0.072
14.801680,-0.0095,0.0510,-0.0485,0.071
14.807183,-0.0383,0.1314,-0.0033,0.137
14.811917,-0.0573,-0.0050,-0.0085,0.058
14.817349,-0.0212,-0.1901,0.0219,0.193
14.821994,0.0382,-0.0389,-0.0928,0.108
14.826641,0.0783,0.1727,-0.1522,0.243
14.830852,0.0372,-0.0496,-0.0281,0.068
14.836620,0.0299,-0.0350,0.0591,0.075
14.841263,-0.0465,0.0532,0.0317,0.077
14.845439,-0.0273,-0.0113,0.0971,0.102
14.850185,-0.0248,-0.0254,0.0933,0.100
14.854736,0.0204,-0.0015,0.0135,0.024
14.860807,0.0155,0.0223,-0.0491,0.056
14.864258,0.0247,-0.0017,-0.0639,0.069
14.869611,-0.0279,0.0031,-0.0263,0.038
14.874580,-0.0303,-0.0063,0.0561,0.064
14.879227,-0.0279,-0.0181,0.0406,0.052
14.883809,0.0362,0.0296,0.0157,0.049
14.888349,0.0167,0.0103,0.0053,0.020
14.893494,0.0354,0.0079,-0.0217,0.042
14.898576,0.0420,0.0293,0.0136,0.053
14.902865,0.0085,-0.0066,0.0009,0.011
14.907969,-0.0248,-0.0066,-0.0233,0.035
14.913167,0.0037,0.0030,0.0001,0.005
14.918438,0.0227,0.0101,0.0018,0.025
14.923303,0.0105,-0.0042,0.0108,0.016
14.928200,0.0056,-0.0232,0.0171,0.029
14.932630,-0.0206,-0.0326,-0.3800,0.382
14.937571,-0.0067,0.2124,-1.0127,1.035
14.942531,0.4053,0.1723,0.7402,0.861
14.947227,-0.4692,-0.3231,1.1611,1.293
14.951894,0.0779,-0.4532,-1.3438,1.420
14.957155,0.4824,0.8250,0.0720,0.958
14.961327,-0.6336,0.0610,1.1983,1.357
14.966048,-0.2069,-0.8200,0.1238,0.855
14.971269,0.1602,0.1508,-0.4359,0.488
14.975798,0.1306,0.5103,-0.3788,0.649
14.981366,0.0345,-0.1896,-0.0847,0.211
14.985942,-0.1038,-0.2235,0.4552,0.518
14.990713,0.0089,0.1272,0.3271,0.351
14.995416,-0.0176,0.0621,-0.0204,0.068
15.000681,-0.0176,-0.2256,-0.1516,0.272
15.004841,0.0823,0.1442,-0.2436,0.295
15.010298,0.0889,0.1857,-0.1617,0.262
15.014582,-0.0305,-0.1079,-0.0330,0.117
15.021811,-0.0085,-0.0454,-0.0050,0.046
15.024216,-0.0178,0.0451,0.1061,0.117
15.029379,-0.0271,-0.0479,0.2281,0.235
15.034337,-0.0123,-0.0261,0.2297,0.232
15.038551,-0.0874,-0.0332,3.0863,3.088
15.043906,-0.9875,-0.2202,0.1691,1.026
15.048825,0.5137,-0.1613,-0.8294,0.989
15.054075,-0.1490,0.4314,-1.1316,1.220
15.057911,0.5247,0.5677,-0.5858,0.970
15.062995,-0.0534,-0.3750,0.1859,0.422
15.068205,-0.1073,-0.3743,0.4576,0.601
15.073477,-0.1731,0.1250,0.2808,0.353
15.077242,-0.0940,0.0862,0.0386,0.133
15.082344,0.0274,-0.0544,-0.1067,0.123
15.087518,-0.0943,0.1099,-0.3503,0.379
15.092105,0.1748,-0.0500,-0.1219,0.219
15.097460,0.0333,-0.0758,-0.0186,0.085
15.102288,0.0641,-0.0158,0.0459,0.080
15.106713,-0.0218,0.0294,0.0482,0.061
15.111173,-0.0527,-0.0159,0.0070,0.055
15.116105,-0.0621,0.0389,-0.4989,0.504
15.122388,0.2090,0.1146,-0.0841,0.253
15.125866,-0.1155,-0.0668,-0.0101,0.134
15.130831,0.0610,-0.0164,0.0323,0.071
15.135682,-0.0512,0.0146,0.0442,0.069
15.141199,0.0183,-0.0521,0.2283,0.235
15.145586,-0.0389,-0.0231,0.1055,0.115
15.150280,0.0852,-0.0349,0.0573,0.108
15.154713,0.0253,-0.0370,0.1233,0.131
15.161445,-0.0438,0.0013,-0.0227,0.049
15.164662,-0.0127,0.0559,-0.1867,0.195
15.169862,0.0206,0.0436,-0.2378,0.243
15.174393,0.0538,0.0313,-0.1341,0.148
15.179975,0.0061,-0.0236,0.0566,0.062
15.183723,0.0015,-0.0306,0.1462,0.149
15.189336,-0.0294,-0.0446,0.1329,0.143
15.193896,0.0159,0.0009,0.0866,0.088
15.198313,0.0108,0.0342,-0.0353,0.050
15.203440,0.0510,0.0030,-0.0661,0.084
15.207980,0.0364,-0.0136,-0.0942,0.102
15.212767,0.0290,0.0292,-0.0794,0.089
15.217645,-0.0045,0.0100,-0.0504,0.052
15.222884,0.0097,-0.0091,0.0377,0.040
15.227459,0.0025,-0.0114,0.0540,0.055
15.233006,0.0334,-0.0137,0.0417,0.055
15.237028,0.0331,-0.0373,-0.0156,0.052
15.241771,-0.0028,-0.0204,-0.0059,0.021
15.246703,-0.0290,-0.0012,0.0012,0.029
15.251285,0.0139,-0.0059,-0.0012,0.015
15.256740,0.0186,0.0084,-0.0246,0.032
15.261187,0.0211,0.0154,0.0994,0.103
15.265774,-0.0527,-0.0536,0.0158,0.077
15.272801,0.0665,0.0181,-0.0125,0.070
15.276479,-0.0288,0.0036,0.0165,0.033
15.280932,-0.0117,-0.0321,0.0379,0.051
15.285669,0.0240,-0.0081,-0.0289,0.038
15.290457,-0.0070,0.0300,-0.1260,0.130
15.295290,0.0668,0.0463,-0.1393,0.161
15.299896,-0.0048,0.0055,-0.0909,0.091
15.304929,0.0049,0.0339,0.0048,0.035
15.309781,0.0193,-0.0139,0.0093,0.026
