
time,gFx,gFy,gFz,ax,ay,az,wx,wy,wz,Bx,By,Bz,Azimuth,Pitch,Roll,Latitude,Longitude,Speed (m/s),
0.094665,0.0000,0.0000,0.0000,0.0000,0.0000,0.0000,0.0000,0.0000,0.0000,0.0000,0.0000,0.0000,207.2500,67.3906,22.3125,0.00000000,0.00000000,0.00000000,
0.116098,0.1770,-0.9770,0.0261,0.0000,0.0000,0.0000,0.0000,0.0000,0.0000,0.0000,0.0000,0.0000,207.2500,67.3906,22.3125,0.00000000,0.00000000,0.00000000,
0.140022,0.1770,-0.9770,0.0261,0.0000,0.0000,0.0000,0.0000,0.0000,0.0000,0.0000,0.0000,0.0000,207.2500,67.3906,22.3125,0.00000000,0.00000000,0.00000000,
0.143398,0.1770,-0.9770,0.0261,0.0000,0.0000,0.0000,0.0000,0.0000,0.0000,-10.5260,48.0295,-19.8408,207.2500,67.3906,22.3125,0.00000000,0.00000000,0.00000000,
0.168948,0.1762,-0.9764,0.0265,0.0000,0.0000,0.0000,0.0000,0.0000,0.0000,-10.5260,48.0295,-19.8408,207.2500,67.3906,22.3125,0.00000000,0.00000000,0.00000000,
0.177808,0.1762,-0.9764,0.0265,0.0000,0.0000,0.0000,0.0000,0.0000,0.0000,-10.5260,48.0295,-19.8408,207.2500,67.3906,22.3125,0.00000000,0.00000000,0.00000000,
0.198088,0.1762,-0.9764,0.0265,0.0000,0.0000,0.0000,0.0000,0.0000,0.0000,-10.4661,47.4693,-19.6953,207.2500,67.3906,22.3125,0.00000000,0.00000000,0.00000000,
0.216546,0.1762,-0.9764,0.0265,-0.0067,0.0066,0.0069,0.0000,0.0000,0.0000,-10.4661,47.4693,-19.6953,207.2500,67.3906,22.3125,0.00000000,0.00000000,0.00000000,
0.219617,0.1762,-0.9764,0.0265,-0.0067,0.0066,0.0069,0.0000,0.0000,0.0000,-10.4661,47.4693,-19.6953,207.2500,67.3906,22.3125,0.00000000,0.00000000,0.00000000,
0.238720,0.1757,-0.9756,0.0268,-0.0067,0.0066,0.0069,0.0000,0.0000,0.0000,-10.4661,47.4693,-19.6953,207.2500,67.3906,22.3125,0.00000000,0.00000000,0.00000000,
0.247436,0.1757,-0.9756,0.0268,-0.0067,0.0066,0.0069,-0.0033,-0.0028,0.0011,-10.4661,47.4693,-19.6953,207.2500,67.3906,22.3125,0.00000000,0.00000000,0.00000000,
0.260847,0.1757,-0.9756,0.0268,-0.0067,0.0066,0.0069,-0.0033,-0.0028,0.0011,-10.4661,47.4693,-19.6953,207.2500,67.3906,22.3125,0.00000000,0.00000000,0.00000000,
0.277975,0.1757,-0.9756,0.0268,0.0003,0.0019,0.0046,-0.0033,-0.0028,0.0011,-10.4661,47.4693,-19.6953,207.2500,67.3906,22.3125,0.00000000,0.00000000,0.00000000,
0.282071,0.1757,-0.9756,0.0268,0.0003,0.0019,0.0046,-0.0033,-0.0028,0.0011,-10.9536,48.0798,-19.7791,207.2500,67.3906,22.3125,0.00000000,0.00000000,0.00000000,
0.305515,0.1757,-0.9756,0.0268,0.0003,0.0019,0.0046,-0.0033,-0.0028,0.0011,-10.9536,48.0798,-19.7791,207.2500,67.3906,22.3125,0.00000000,0.00000000,0.00000000,
0.310773,0.1786,-0.9785,0.0270,0.0003,0.0019,0.0046,-0.0033,-0.0028,0.0011,-10.9536,48.0798,-19.7791,207.2500,67.3906,22.3125,0.00000000,0.00000000,0.00000000,
0.330027,0.1786,-0.9785,0.0270,0.0003,0.0019,0.0046,0.0052,0.0005,-0.0042,-10.9536,48.0798,-19.7791,207.2500,67.3906,22.3125,0.00000000,0.00000000,0.00000000,
0.340804,0.1786,-0.9785,0.0270,0.0123,-0.0146,0.0034,0.0052,0.0005,-0.0042,-10.9536,48.0798,-19.7791,207.2500,67.3906,22.3125,0.00000000,0.00000000,0.00000000,
0.344169,0.1786,-0.9785,0.0270,0.0101,-0.0108,0.0035,0.0052,0.0005,-0.0042,-10.9536,48.0798,-19.7791,207.2500,67.3906,22.3125,0.00000000,0.00000000,0.00000000,
0.347156,0.1786,-0.9785,0.0270,0.0101,-0.0108,0.0035,0.0052,0.0005,-0.0042,-11.3624,47.6320,-19.2863,207.2500,67.3906,22.3125,0.00000000,0.00000000,0.00000000,
0.349574,0.1786,-0.9785,0.0270,0.0101,-0.0108,0.0035,0.0052,0.0005,-0.0042,-11.3624,47.6320,-19.2863,207.2500,67.3906,22.3125,0.00000000,0.00000000,0.00000000,
0.372067,0.1786,-0.9785,0.0270,0.0101,-0.0108,0.0035,-0.0023,-0.0003,-0.0009,-11.3624,47.6320,-19.2863,207.2500,67.3906,22.3125,0.00000000,0.00000000,0.00000000,
0.376092,0.1752,-0.9754,0.0283,0.0101,-0.0108,0.0035,-0.0023,-0.0003,-0.0009,-11.3624,47.6320,-19.2863,207.2500,67.3906,22.3125,0.00000000,0.00000000,0.00000000,
0.391853,0.1752,-0.9754,0.0283,0.0101,-0.0108,0.0035,-0.0023,-0.0003,-0.0009,-11.3624,47.6320,-19.2863,207.2500,67.3906,22.3125,0.00000000,0.00000000,0.00000000,
0.398230,0.1752,-0.9754,0.0283,-0.0173,0.0223,0.0185,-0.0023,-0.0003,-0.0009,-11.3624,47.6320,-19.2863,207.2500,67.3906,22.3125,0.00000000,0.00000000,0.00000000,
0.401962,0.1752,-0.9754,0.0283,-0.0173,0.0223,0.0185,-0.0023,-0.0003,-0.0009,-10.7212,48.0273,-19.1066,207.2500,67.3906,22.3125,0.00000000,0.00000000,0.00000000,
0.427918,0.1752,-0.9754,0.0283,-0.0173,0.0223,0.0185,-0.0023,-0.0003,-0.0009,-10.7212,48.0273,-19.1066,186.3281,79.4688,10.4219,0.00000000,0.00000000,0.00000000,
0.439975,0.1767,-0.9762,0.0275,-0.0173,0.0223,0.0185,-0.0023,-0.0003,-0.0009,-10.7212,48.0273,-19.1066,186.3281,79.4688,10.4219,0.00000000,0.00000000,0.00000000,
0.448531,0.1767,-0.9762,0.0275,-0.0173,0.0223,0.0185,0.0056,0.0007,0.0005,-10.7212,48.0273,-19.1066,186.3281,79.4688,10.4219,0.00000000,0.00000000,0.00000000,
0.460054,0.1767,-0.9762,0.0275,0.0009,-0.0056,-0.0092,0.0056,0.0007,0.0005,-10.7212,48.0273,-19.1066,186.3281,79.4688,10.4219,0.00000000,0.00000000,0.00000000,
0.463277,0.1767,-0.9762,0.0275,0.0018,-0.0045,-0.0091,0.0056,0.0007,0.0005,-10.7212,48.0273,-19.1066,186.3281,79.4688,10.4219,0.00000000,0.00000000,0.00000000,
0.472831,0.1767,-0.9762,0.0275,0.0018,-0.0045,-0.0091,0.0056,0.0007,0.0005,-10.7212,48.0273,-19.1066,184.5938,79.7188,10.1719,0.00000000,0.00000000,0.00000000,
0.478442,0.1767,-0.9762,0.0275,0.0018,-0.0045,-0.0091,0.0056,0.0007,0.0005,-10.7056,47.6688,-19.0162,184.5938,79.7188,10.1719,0.00000000,0.00000000,0.00000000,
0.498565,0.1767,-0.9764,0.0265,0.0018,-0.0045,-0.0091,0.0056,0.0007,0.0005,-10.7056,47.6688,-19.0162,184.5938,79.7188,10.1719,0.00000000,0.00000000,0.00000000,
0.511496,0.1767,-0.9764,0.0265,0.0018,-0.0045,-0.0091,0.0056,0.0007,0.0005,-10.7056,47.6688,-19.0162,183.9531,79.7500,10.1562,0.00000000,0.00000000,0.00000000,
0.517778,0.1767,-0.9764,0.0265,-0.0110,0.0129,0.0064,0.0056,0.0007,0.0005,-10.7056,47.6688,-19.0162,183.9531,79.7500,10.1562,0.00000000,0.00000000,0.00000000,
0.530701,0.1767,-0.9764,0.0265,-0.0110,0.0129,0.0064,0.0017,-0.0011,0.0021,-10.7056,47.6688,-19.0162,183.9531,79.7500,10.1562,0.00000000,0.00000000,0.00000000,
0.539401,0.1767,-0.9764,0.0265,-0.0110,0.0129,0.0064,0.0017,-0.0011,0.0021,-10.9389,47.6814,-19.8168,183.9531,79.7500,10.1562,0.00000000,0.00000000,0.00000000,
0.554628,0.1767,-0.9764,0.0265,-0.0110,0.0129,0.0064,0.0017,-0.0011,0.0021,-10.9389,47.6814,-19.8168,183.6406,79.7031,10.1719,0.00000000,0.00000000,0.00000000,
0.573548,0.1767,-0.9764,0.0265,-0.0110,0.0129,0.0064,-0.0002,-0.0011,-0.0020,-10.9389,47.6814,-19.8168,183.6406,79.7031,10.1719,0.00000000,0.00000000,0.00000000,
0.577479,0.1753,-0.9755,0.0272,-0.0110,0.0129,0.0064,-0.0002,-0.0011,-0.0020,-10.9389,47.6814,-19.8168,183.6406,79.7031,10.1719,0.00000000,0.00000000,0.00000000,
0.580817,0.1753,-0.9755,0.0272,-0.0011,0.0085,0.0015,-0.0002,-0.0011,-0.0020,-10.9389,47.6814,-19.8168,183.6406,79.7031,10.1719,0.00000000,0.00000000,0.00000000,
0.583398,0.1753,-0.9755,0.0272,-0.0020,0.0072,0.0014,-0.0002,-0.0011,-0.0020,-10.9389,47.6814,-19.8168,183.6406,79.7031,10.1719,0.00000000,0.00000000,0.00000000,
0.594641,0.1753,-0.9755,0.0272,-0.0020,0.0072,0.0014,-0.0002,-0.0011,-0.0020,-10.9389,47.6814,-19.8168,180.5156,79.4531,10.4375,0.00000000,0.00000000,0.00000000,
0.597976,0.1753,-0.9755,0.0272,-0.0020,0.0072,0.0014,-0.0002,-0.0011,-0.0020,-10.6648,47.8525,-19.5119,180.5156,79.4531,10.4375,0.00000000,0.00000000,0.00000000,
0.637648,0.1753,-0.9755,0.0272,-0.0020,0.0072,0.0014,-0.0002,-0.0011,-0.0020,-10.6648,47.8525,-19.5119,182.2031,79.7500,10.1250,0.00000000,0.00000000,0.00000000,
0.641863,0.1763,-0.9757,0.0278,-0.0020,0.0072,0.0014,-0.0002,-0.0011,-0.0020,-10.6648,47.8525,-19.5119,182.2031,79.7500,10.1250,0.00000000,0.00000000,0.00000000,
0.645343,0.1763,-0.9757,0.0278,0.0009,-0.0101,-0.0097,-0.0002,-0.0011,-0.0020,-10.6648,47.8525,-19.5119,182.2031,79.7500,10.1250,0.00000000,0.00000000,0.00000000,
0.650706,0.1763,-0.9757,0.0278,0.0009,-0.0101,-0.0097,-0.0072,-0.0034,-0.0012,-10.6648,47.8525,-19.5119,182.2031,79.7500,10.1250,0.00000000,0.00000000,0.00000000,
0.678384,0.1763,-0.9757,0.0278,0.0009,-0.0101,-0.0097,-0.0072,-0.0034,-0.0012,-11.3703,46.9322,-19.8216,182.2031,79.7500,10.1250,0.00000000,0.00000000,0.00000000,
0.683623,0.1763,-0.9757,0.0278,0.0009,-0.0101,-0.0097,-0.0072,-0.0034,-0.0012,-11.3703,46.9322,-19.8216,181.2500,79.7031,10.1719,0.00000000,0.00000000,0.00000000,
0.703270,0.1763,-0.9757,0.0278,-0.0145,0.0207,0.0232,-0.0072,-0.0034,-0.0012,-11.3703,46.9322,-19.8216,181.2500,79.7031,10.1719,0.00000000,0.00000000,0.00000000,
0.706644,0.1767,-0.9775,0.0255,-0.0145,0.0207,0.0232,-0.0072,-0.0034,-0.0012,-11.3703,46.9322,-19.8216,181.2500,79.7031,10.1719,0.00000000,0.00000000,0.00000000,
0.708892,0.1767,-0.9775,0.0255,-0.0141,0.0182,0.0216,-0.0072,-0.0034,-0.0012,-11.3703,46.9322,-19.8216,181.2500,79.7031,10.1719,0.00000000,0.00000000,0.00000000,
0.722783,0.1767,-0.9775,0.0255,-0.0141,0.0182,0.0216,-0.0072,-0.0034,-0.0012,-11.3703,46.9322,-19.8216,181.2500,79.6875,10.1719,0.00000000,0.00000000,0.00000000,
0.731404,0.1767,-0.9775,0.0255,-0.0141,0.0182,0.0216,-0.0026,-0.0007,-0.0025,-11.3703,46.9322,-19.8216,181.2500,79.6875,10.1719,0.00000000,0.00000000,0.00000000,
0.738065,0.1767,-0.9775,0.0255,-0.0141,0.0182,0.0216,-0.0026,-0.0007,-0.0025,-10.9745,47.3512,-19.8176,181.2500,79.6875,10.1719,0.00000000,0.00000000,0.00000000,
0.758388,0.1767,-0.9775,0.0255,0.0021,-0.0150,-0.0148,-0.0026,-0.0007,-0.0025,-10.9745,47.3512,-19.8176,181.2500,79.6875,10.1719,0.00000000,0.00000000,0.00000000,
0.761369,0.1767,-0.9775,0.0255,0.0021,-0.0150,-0.0148,-0.0026,-0.0007,-0.0025,-10.9745,47.3512,-19.8176,181.2500,79.7031,10.1719,0.00000000,0.00000000,0.00000000,
0.773416,0.1756,-0.9753,0.0272,0.0021,-0.0150,-0.0148,-0.0026,-0.0007,-0.0025,-10.9745,47.3512,-19.8176,181.2500,79.7031,10.1719,0.00000000,0.00000000,0.00000000,
0.777748,0.1756,-0.9753,0.0272,0.0021,-0.0150,-0.0148,0.0073,0.0003,-0.0018,-10.9745,47.3512,-19.8176,181.2500,79.7031,10.1719,0.00000000,0.00000000,0.00000000,
0.797899,0.1756,-0.9753,0.0272,0.0021,-0.0150,-0.0148,0.0073,0.0003,-0.0018,-11.4284,47.5269,-19.6358,181.2500,79.7031,10.1719,0.00000000,0.00000000,0.00000000,
0.802503,0.1756,-0.9753,0.0272,0.0021,-0.0150,-0.0148,0.0073,0.0003,-0.0018,-11.4284,47.5269,-19.6358,183.5000,79.7031,10.1875,0.00000000,0.00000000,0.00000000,
0.821089,0.1756,-0.9753,0.0272,-0.0089,0.0081,-0.0031,0.0073,0.0003,-0.0018,-11.4284,47.5269,-19.6358,183.5000,79.7031,10.1875,0.00000000,0.00000000,0.00000000,
0.825409,0.1756,-0.9753,0.0272,-0.0080,0.0070,-0.0084,0.0073,0.0003,-0.0018,-11.4284,47.5269,-19.6358,183.5000,79.7031,10.1875,0.00000000,0.00000000,0.00000000,
0.841216,0.1756,-0.9747,0.0291,-0.0080,0.0070,-0.0084,0.0073,0.0003,-0.0018,-11.4284,47.5269,-19.6358,183.5000,79.7031,10.1875,0.00000000,0.00000000,0.00000000,
0.846344,0.1756,-0.9747,0.0291,-0.0080,0.0070,-0.0084,0.0073,0.0003,-0.0018,-11.4284,47.5269,-19.6358,183.7188,79.7344,10.1562,0.00000000,0.00000000,0.00000000,
0.850767,0.1756,-0.9747,0.0291,-0.0080,0.0070,-0.0084,0.0110,-0.0012,0.0027,-11.4284,47.5269,-19.6358,183.7188,79.7344,10.1562,0.00000000,0.00000000,0.00000000,
0.878641,0.1756,-0.9747,0.0291,-0.0080,0.0070,-0.0084,0.0110,-0.0012,0.0027,-11.2169,47.8532,-20.4288,183.7188,79.7344,10.1562,0.00000000,0.00000000,0.00000000,
0.882964,0.1756,-0.9747,0.0291,0.0023,0.0076,0.0109,0.0110,-0.0012,0.0027,-11.2169,47.8532,-20.4288,183.7188,79.7344,10.1562,0.00000000,0.00000000,0.00000000,
0.886185,0.1756,-0.9747,0.0291,0.0023,0.0076,0.0109,0.0110,-0.0012,0.0027,-11.2169,47.8532,-20.4288,183.7500,79.7031,10.1875,0.00000000,0.00000000,0.00000000,
0.904588,0.1778,-0.9777,0.0281,0.0023,0.0076,0.0109,0.0110,-0.0012,0.0027,-11.2169,47.8532,-20.4288,183.7500,79.7031,10.1875,0.00000000,0.00000000,0.00000000,
0.927426,0.1778,-0.9777,0.0281,0.0023,0.0076,0.0109,0.0110,-0.0012,0.0027,-11.2169,47.8532,-20.4288,183.7344,79.7031,10.1875,0.00000000,0.00000000,0.00000000,
0.931027,0.1778,-0.9777,0.0281,0.0023,0.0076,0.0109,0.0009,-0.0055,-0.0056,-11.2169,47.8532,-20.4288,183.7344,79.7031,10.1875,0.00000000,0.00000000,0.00000000,
0.938607,0.1778,-0.9777,0.0281,0.0023,0.0076,0.0109,0.0009,-0.0055,-0.0056,-10.8807,47.7368,-19.6443,183.7344,79.7031,10.1875,0.00000000,0.00000000,0.00000000,
0.942767,0.1778,-0.9777,0.0281,-0.0028,-0.0107,0.0078,0.0009,-0.0055,-0.0056,-10.8807,47.7368,-19.6443,183.7344,79.7031,10.1875,0.00000000,0.00000000,0.00000000,
0.945496,0.1778,-0.9777,0.0281,-0.0026,-0.0095,0.0080,0.0009,-0.0055,-0.0056,-10.8807,47.7368,-19.6443,183.7344,79.7031,10.1875,0.00000000,0.00000000,0.00000000,
0.972354,0.1778,-0.9777,0.0281,-0.0026,-0.0095,0.0080,0.0009,-0.0055,-0.0056,-10.8807,47.7368,-19.6443,183.7344,79.7031,10.1875,0.00000000,0.00000000,0.00000000,
0.975040,0.1778,-0.9777,0.0281,-0.0026,-0.0095,0.0080,0.0049,-0.0126,-0.0069,-10.8807,47.7368,-19.6443,183.7344,79.7031,10.1875,0.00000000,0.00000000,0.00000000,
0.976597,0.1770,-0.9736,0.0298,-0.0026,-0.0095,0.0080,0.0049,-0.0126,-0.0069,-10.8807,47.7368,-19.6443,183.7344,79.7031,10.1875,0.00000000,0.00000000,0.00000000,
0.997578,0.1770,-0.9736,0.0298,-0.0026,-0.0095,0.0080,0.0049,-0.0126,-0.0069,-11.5863,47.5237,-20.4816,183.7344,79.7031,10.1875,0.00000000,0.00000000,0.00000000,
1.006309,0.1770,-0.9736,0.0298,0.0001,0.0169,0.0225,0.0049,-0.0126,-0.0069,-11.5863,47.5237,-20.4816,183.7344,79.7031,10.1875,0.00000000,0.00000000,0.00000000,
1.011429,0.1770,-0.9736,0.0298,0.0001,0.0169,0.0225,0.0049,-0.0126,-0.0069,-11.5863,47.5237,-20.4816,183.7500,79.7031,10.2031,0.00000000,0.00000000,0.00000000,
1.031537,0.1783,-0.9759,0.0281,0.0001,0.0169,0.0225,0.0049,-0.0126,-0.0069,-11.5863,47.5237,-20.4816,183.7500,79.7031,10.2031,0.00000000,0.00000000,0.00000000,
1.050789,0.1783,-0.9759,0.0281,0.0001,0.0169,0.0225,-0.0064,-0.0267,-0.0075,-11.5863,47.5237,-20.4816,183.7500,79.7031,10.2031,0.00000000,0.00000000,0.00000000,
1.053150,0.1783,-0.9759,0.0281,0.0001,0.0169,0.0225,-0.0064,-0.0267,-0.0075,-11.5863,47.5237,-20.4816,183.7188,79.7188,10.1719,0.00000000,0.00000000,0.00000000,
1.068255,0.1783,-0.9759,0.0281,0.0323,-0.0171,-0.0250,-0.0064,-0.0267,-0.0075,-11.5863,47.5237,-20.4816,183.7188,79.7188,10.1719,0.00000000,0.00000000,0.00000000,
1.071302,0.1783,-0.9759,0.0281,0.0282,-0.0151,-0.0156,-0.0064,-0.0267,-0.0075,-11.5863,47.5237,-20.4816,183.7188,79.7188,10.1719,0.00000000,0.00000000,0.00000000,
1.079732,0.1783,-0.9759,0.0281,0.0282,-0.0151,-0.0156,-0.0064,-0.0267,-0.0075,-11.0822,47.7488,-19.4702,183.7188,79.7188,10.1719,0.00000000,0.00000000,0.00000000,
1.093718,0.1783,-0.9759,0.0281,0.0282,-0.0151,-0.0156,-0.0064,-0.0267,-0.0075,-11.0822,47.7488,-19.4702,183.7188,79.7031,10.1719,0.00000000,0.00000000,0.00000000,
1.105183,0.1739,-0.9710,0.0301,0.0282,-0.0151,-0.0156,-0.0064,-0.0267,-0.0075,-11.0822,47.7488,-19.4702,183.7188,79.7031,10.1719,0.00000000,0.00000000,0.00000000,
1.132137,0.1739,-0.9710,0.0301,-0.0504,0.0471,0.0311,-0.0064,-0.0267,-0.0075,-11.0822,47.7488,-19.4702,183.7188,79.7031,10.1719,0.00000000,0.00000000,0.00000000,
1.135809,0.1739,-0.9710,0.0301,-0.0504,0.0471,0.0311,0.0036,-0.0086,-0.0098,-11.0822,47.7488,-19.4702,183.7188,79.7031,10.1719,0.00000000,0.00000000,0.00000000,
1.138338,0.1739,-0.9710,0.0301,-0.0504,0.0471,0.0311,0.0036,-0.0086,-0.0098,-11.0822,47.7488,-19.4702,183.7344,79.6719,10.2031,0.00000000,0.00000000,0.00000000,
1.140002,0.1739,-0.9710,0.0301,-0.0504,0.0471,0.0311,0.0036,-0.0086,-0.0098,-11.3131,47.3750,-20.6949,183.7344,79.6719,10.2031,0.00000000,0.00000000,0.00000000,
1.171903,0.1821,-0.9776,0.0243,-0.0504,0.0471,0.0311,0.0036,-0.0086,-0.0098,-11.3131,47.3750,-20.6949,183.7344,79.6719,10.2031,0.00000000,0.00000000,0.00000000,
1.175400,0.1821,-0.9776,0.0243,-0.0504,0.0471,0.0311,-0.0368,-0.0303,-0.0259,-11.3131,47.3750,-20.6949,183.7344,79.6719,10.2031,0.00000000,0.00000000,0.00000000,
1.178208,0.1821,-0.9776,0.0243,-0.0504,0.0471,0.0311,-0.0368,-0.0303,-0.0259,-11.3131,47.3750,-20.6949,183.7500,79.6562,10.2188,0.00000000,0.00000000,0.00000000,
1.189211,0.1821,-0.9776,0.0243,0.0070,0.0005,0.0172,-0.0368,-0.0303,-0.0259,-11.3131,47.3750,-20.6949,183.7500,79.6562,10.2188,0.00000000,0.00000000,0.00000000,
1.192139,0.1821,-0.9776,0.0243,-0.0027,-0.0008,0.0325,-0.0368,-0.0303,-0.0259,-11.3131,47.3750,-20.6949,183.7500,79.6562,10.2188,0.00000000,0.00000000,0.00000000,
1.197398,0.1821,-0.9776,0.0243,-0.0027,-0.0008,0.0325,-0.0368,-0.0303,-0.0259,-11.6457,47.4141,-19.1464,183.7500,79.6562,10.2188,0.00000000,0.00000000,0.00000000,
1.220556,0.1821,-0.9776,0.0243,-0.0027,-0.0008,0.0325,-0.0368,-0.0303,-0.0259,-11.6457,47.4141,-19.1464,183.7344,79.6562,10.2188,0.00000000,0.00000000,0.00000000,
1.232141,0.1809,-0.9742,0.0239,-0.0027,-0.0008,0.0325,-0.0368,-0.0303,-0.0259,-11.6457,47.4141,-19.1464,183.7344,79.6562,10.2188,0.00000000,0.00000000,0.00000000,
1.245826,0.1809,-0.9742,0.0239,-0.0109,-0.0032,-0.0018,-0.0368,-0.0303,-0.0259,-11.6457,47.4141,-19.1464,183.7344,79.6562,10.2188,0.00000000,0.00000000,0.00000000,
1.256110,0.1809,-0.9742,0.0239,-0.0109,-0.0032,-0.0018,-0.0302,-0.0139,-0.0350,-11.6457,47.4141,-19.1464,183.7344,79.6562,10.2188,0.00000000,0.00000000,0.00000000,
1.261144,0.1809,-0.9742,0.0239,-0.0109,-0.0032,-0.0018,-0.0302,-0.0139,-0.0350,-11.6457,47.4141,-19.1464,183.7500,79.5938,10.2812,0.00000000,0.00000000,0.00000000,
1.277466,0.1809,-0.9742,0.0239,-0.0109,-0.0032,-0.0018,-0.0302,-0.0139,-0.0350,-11.6874,47.5637,-20.3945,183.7500,79.5938,10.2812,0.00000000,0.00000000,0.00000000,
1.304794,0.1809,-0.9742,0.0239,-0.0109,-0.0032,-0.0018,-0.0302,-0.0139,-0.0350,-11.6874,47.5637,-20.3945,183.7969,79.5156,10.3750,0.00000000,0.00000000,0.00000000,
1.308643,0.1839,-0.9743,0.0240,-0.0109,-0.0032,-0.0018,-0.0302,-0.0139,-0.0350,-11.6874,47.5637,-20.3945,183.7969,79.5156,10.3750,0.00000000,0.00000000,0.00000000,
1.310829,0.1839,-0.9743,0.0240,-0.0085,0.0163,0.0153,-0.0302,-0.0139,-0.0350,-11.6874,47.5637,-20.3945,183.7969,79.5156,10.3750,0.00000000,0.00000000,0.00000000,
1.312953,0.1839,-0.9743,0.0240,-0.0247,0.0115,0.0265,-0.0302,-0.0139,-0.0350,-11.6874,47.5637,-20.3945,183.7969,79.5156,10.3750,0.00000000,0.00000000,0.00000000,
1.333028,0.1839,-0.9743,0.0240,-0.0247,0.0115,0.0265,-0.0385,-0.0235,-0.0497,-11.6874,47.5637,-20.3945,183.7969,79.5156,10.3750,0.00000000,0.00000000,0.00000000,
1.340250,0.1839,-0.9743,0.0240,-0.0247,0.0115,0.0265,-0.0385,-0.0235,-0.0497,-11.7079,47.6842,-19.0064,183.7969,79.5156,10.3750,0.00000000,0.00000000,0.00000000,
1.343857,0.1839,-0.9743,0.0240,-0.0247,0.0115,0.0265,-0.0385,-0.0235,-0.0497,-11.7079,47.6842,-19.0064,183.6250,79.6094,10.2656,0.00000000,0.00000000,0.00000000,
1.366675,0.1839,-0.9743,0.0240,-0.0173,-0.0027,0.0279,-0.0385,-0.0235,-0.0497,-11.7079,47.6842,-19.0064,183.6250,79.6094,10.2656,0.00000000,0.00000000,0.00000000,
1.375813,0.1938,-0.9781,0.0029,-0.0173,-0.0027,0.0279,-0.0385,-0.0235,-0.0497,-11.7079,47.6842,-19.0064,183.6250,79.6094,10.2656,0.00000000,0.00000000,0.00000000,
1.379439,0.1938,-0.9781,0.0029,-0.0173,-0.0027,0.0279,-0.0598,-0.0833,0.0098,-11.7079,47.6842,-19.0064,183.6250,79.6094,10.2656,0.00000000,0.00000000,0.00000000,
1.389853,0.1938,-0.9781,0.0029,-0.0173,-0.0027,0.0279,-0.0598,-0.0833,0.0098,-11.7079,47.6842,-19.0064,183.5781,79.6406,10.2344,0.00000000,0.00000000,0.00000000,
1.398252,0.1938,-0.9781,0.0029,-0.0173,-0.0027,0.0279,-0.0598,-0.0833,0.0098,-11.8823,47.6130,-19.0473,183.5781,79.6406,10.2344,0.00000000,0.00000000,0.00000000,
1.423193,0.1938,-0.9781,0.0029,0.0871,-0.0468,-0.1361,-0.0598,-0.0833,0.0098,-11.8823,47.6130,-19.0473,183.5781,79.6406,10.2344,0.00000000,0.00000000,0.00000000,
1.427457,0.1938,-0.9781,0.0029,0.0853,-0.0406,-0.1523,-0.0598,-0.0833,0.0098,-11.8823,47.6130,-19.0473,183.5781,79.6406,10.2344,0.00000000,0.00000000,0.00000000,
1.429938,0.1938,-0.9781,0.0029,0.0853,-0.0406,-0.1523,-0.0598,-0.0833,0.0098,-11.8823,47.6130,-19.0473,183.6875,79.5000,10.3750,0.00000000,0.00000000,0.00000000,
1.433567,0.1765,-0.9632,0.0325,0.0853,-0.0406,-0.1523,-0.0598,-0.0833,0.0098,-11.8823,47.6130,-19.0473,183.6875,79.5000,10.3750,0.00000000,0.00000000,0.00000000,
1.455230,0.1765,-0.9632,0.0325,0.0853,-0.0406,-0.1523,0.0965,-0.0171,-0.0182,-11.8823,47.6130,-19.0473,183.6875,79.5000,10.3750,0.00000000,0.00000000,0.00000000,
1.472460,0.1765,-0.9632,0.0325,0.0853,-0.0406,-0.1523,0.0965,-0.0171,-0.0182,-11.8823,47.6130,-19.0473,183.7188,79.4531,10.4531,0.00000000,0.00000000,0.00000000,
1.477741,0.1765,-0.9632,0.0325,0.0853,-0.0406,-0.1523,0.0965,-0.0171,-0.0182,-12.2265,47.3437,-19.2571,183.7188,79.4531,10.4531,0.00000000,0.00000000,0.00000000,
1.489644,0.1765,-0.9632,0.0325,-0.1027,0.1043,0.0754,0.0965,-0.0171,-0.0182,-12.2265,47.3437,-19.2571,183.7188,79.4531,10.4531,0.00000000,0.00000000,0.00000000,
1.505963,0.1870,-0.9657,0.0375,-0.1027,0.1043,0.0754,0.0965,-0.0171,-0.0182,-12.2265,47.3437,-19.2571,183.7188,79.4531,10.4531,0.00000000,0.00000000,0.00000000,
1.510723,0.1870,-0.9657,0.0375,-0.1027,0.1043,0.0754,0.0965,-0.0171,-0.0182,-12.2265,47.3437,-19.2571,183.7188,79.4062,10.5000,0.00000000,0.00000000,0.00000000,
1.535110,0.1870,-0.9657,0.0375,-0.1027,0.1043,0.0754,-0.1242,-0.0557,-0.1317,-12.2265,47.3437,-19.2571,183.7188,79.4062,10.5000,0.00000000,0.00000000,0.00000000,
1.539121,0.1870,-0.9657,0.0375,-0.1027,0.1043,0.0754,-0.1242,-0.0557,-0.1317,-11.7325,47.8468,-19.7846,183.7188,79.4062,10.5000,0.00000000,0.00000000,0.00000000,
1.547531,0.1870,-0.9657,0.0375,-0.0746,0.0697,0.2414,-0.1242,-0.0557,-0.1317,-11.7325,47.8468,-19.7846,183.7188,79.4062,10.5000,0.00000000,0.00000000,0.00000000,
1.551734,0.1870,-0.9657,0.0375,-0.1167,0.0532,0.3127,-0.1242,-0.0557,-0.1317,-11.7325,47.8468,-19.7846,183.7188,79.4062,10.5000,0.00000000,0.00000000,0.00000000,
1.555434,0.1870,-0.9657,0.0375,-0.1167,0.0532,0.3127,-0.1242,-0.0557,-0.1317,-11.7325,47.8468,-19.7846,183.8125,79.3438,10.5938,0.00000000,0.00000000,0.00000000,
1.567781,0.2059,-0.9802,-0.0079,-0.1167,0.0532,0.3127,-0.1242,-0.0557,-0.1317,-11.7325,47.8468,-19.7846,183.8125,79.3438,10.5938,0.00000000,0.00000000,0.00000000,
1.576258,0.2059,-0.9802,-0.0079,-0.1167,0.0532,0.3127,-0.2977,-0.1240,-0.1507,-11.7325,47.8468,-19.7846,183.8125,79.3438,10.5938,0.00000000,0.00000000,0.00000000,
1.594218,0.2059,-0.9802,-0.0079,-0.1167,0.0532,0.3127,-0.2977,-0.1240,-0.1507,-11.7325,47.8468,-19.7846,183.8750,79.2500,10.6875,0.00000000,0.00000000,0.00000000,
1.597636,0.2059,-0.9802,-0.0079,-0.1167,0.0532,0.3127,-0.2977,-0.1240,-0.1507,-12.8071,48.4444,-17.7107,183.8750,79.2500,10.6875,0.00000000,0.00000000,0.00000000,
1.614140,0.2059,-0.9802,-0.0079,-0.0346,-0.0555,0.0582,-0.2977,-0.1240,-0.1507,-12.8071,48.4444,-17.7107,183.8750,79.2500,10.6875,0.00000000,0.00000000,0.00000000,
1.634879,0.2084,-0.9718,-0.0255,-0.0346,-0.0555,0.0582,-0.2977,-0.1240,-0.1507,-12.8071,48.4444,-17.7107,183.8750,79.2500,10.6875,0.00000000,0.00000000,0.00000000,
1.638605,0.2084,-0.9718,-0.0255,-0.0346,-0.0555,0.0582,-0.2977,-0.1240,-0.1507,-12.8071,48.4444,-17.7107,184.1250,78.9219,11.0469,0.00000000,0.00000000,0.00000000,
1.654625,0.2084,-0.9718,-0.0255,-0.0346,-0.0555,0.0582,-0.2363,-0.0965,-0.1352,-12.8071,48.4444,-17.7107,184.1250,78.9219,11.0469,0.00000000,0.00000000,0.00000000,
1.668160,0.2084,-0.9718,-0.0255,0.0245,-0.0754,-0.1049,-0.2363,-0.0965,-0.1352,-12.8071,48.4444,-17.7107,184.1250,78.9219,11.0469,0.00000000,0.00000000,0.00000000,
1.672171,0.2084,-0.9718,-0.0255,-0.0241,-0.0780,-0.0320,-0.2363,-0.0965,-0.1352,-12.8071,48.4444,-17.7107,184.1250,78.9219,11.0469,0.00000000,0.00000000,0.00000000,
1.679697,0.2084,-0.9718,-0.0255,-0.0241,-0.0780,-0.0320,-0.2363,-0.0965,-0.1352,-12.8071,48.4444,-17.7107,183.7969,79.1094,10.8906,0.00000000,0.00000000,0.00000000,
1.682808,0.2084,-0.9718,-0.0255,-0.0241,-0.0780,-0.0320,-0.2363,-0.0965,-0.1352,-13.5032,48.0314,-17.3127,183.7969,79.1094,10.8906,0.00000000,0.00000000,0.00000000,
1.707346,0.2231,-0.9749,-0.0435,-0.0241,-0.0780,-0.0320,-0.2363,-0.0965,-0.1352,-13.5032,48.0314,-17.3127,183.7969,79.1094,10.8906,0.00000000,0.00000000,0.00000000,
1.721698,0.2231,-0.9749,-0.0435,-0.0241,-0.0780,-0.0320,-0.2363,-0.0965,-0.1352,-13.5032,48.0314,-17.3127,183.4844,79.2812,10.6875,0.00000000,0.00000000,0.00000000,
1.727657,0.2231,-0.9749,-0.0435,0.0135,-0.0458,-0.1353,-0.2363,-0.0965,-0.1352,-13.5032,48.0314,-17.3127,183.4844,79.2812,10.6875,0.00000000,0.00000000,0.00000000,
1.740320,0.2231,-0.9749,-0.0435,0.0135,-0.0458,-0.1353,-0.0168,-0.0127,-0.1098,-13.5032,48.0314,-17.3127,183.4844,79.2812,10.6875,0.00000000,0.00000000,0.00000000,
1.744926,0.2231,-0.9749,-0.0435,0.0135,-0.0458,-0.1353,-0.0168,-0.0127,-0.1098,-13.6733,47.7690,-16.2704,183.4844,79.2812,10.6875,0.00000000,0.00000000,0.00000000,
1.764970,0.2231,-0.9749,-0.0435,0.0135,-0.0458,-0.1353,-0.0168,-0.0127,-0.1098,-13.6733,47.7690,-16.2704,183.4688,79.1406,10.7031,0.00000000,0.00000000,0.00000000,
1.768580,0.2230,-0.9709,-0.0242,0.0135,-0.0458,-0.1353,-0.0168,-0.0127,-0.1098,-13.6733,47.7690,-16.2704,183.4688,79.1406,10.7031,0.00000000,0.00000000,0.00000000,
1.774849,0.2230,-0.9709,-0.0242,0.0135,-0.0458,-0.1353,0.0954,0.0205,-0.0692,-13.6733,47.7690,-16.2704,183.4688,79.1406,10.7031,0.00000000,0.00000000,0.00000000,
1.788674,0.2230,-0.9709,-0.0242,0.0298,-0.0461,-0.1473,0.0954,0.0205,-0.0692,-13.6733,47.7690,-16.2704,183.4688,79.1406,10.7031,0.00000000,0.00000000,0.00000000,
1.791660,0.2230,-0.9709,-0.0242,0.0025,-0.0457,-0.1701,0.0954,0.0205,-0.0692,-13.6733,47.7690,-16.2704,183.4688,79.1406,10.7031,0.00000000,0.00000000,0.00000000,
1.796874,0.2230,-0.9709,-0.0242,0.0025,-0.0457,-0.1701,0.0954,0.0205,-0.0692,-13.9034,47.9252,-16.8658,183.4688,79.1406,10.7031,0.00000000,0.00000000,0.00000000,
1.804765,0.2230,-0.9709,-0.0242,0.0025,-0.0457,-0.1701,0.0954,0.0205,-0.0692,-13.9034,47.9252,-16.8658,183.6875,78.8594,11.0000,0.00000000,0.00000000,0.00000000,
1.837648,0.2277,-0.9754,-0.0071,0.0025,-0.0457,-0.1701,0.0954,0.0205,-0.0692,-13.9034,47.9252,-16.8658,183.6875,78.8594,11.0000,0.00000000,0.00000000,0.00000000,
1.845249,0.2277,-0.9754,-0.0071,0.0025,-0.0457,-0.1701,0.0954,0.0205,-0.0692,-13.9034,47.9252,-16.8658,183.9688,78.5625,11.4062,0.00000000,0.00000000,0.00000000,
1.848549,0.2277,-0.9754,-0.0071,-0.0425,-0.0212,0.0006,0.0954,0.0205,-0.0692,-13.9034,47.9252,-16.8658,183.9688,78.5625,11.4062,0.00000000,0.00000000,0.00000000,
1.856047,0.2277,-0.9754,-0.0071,-0.0425,-0.0212,0.0006,0.1432,-0.0132,-0.1158,-13.9034,47.9252,-16.8658,183.9688,78.5625,11.4062,0.00000000,0.00000000,0.00000000,
1.877614,0.2277,-0.9754,-0.0071,-0.0425,-0.0212,0.0006,0.1432,-0.0132,-0.1158,-14.8473,47.7775,-18.7526,183.9688,78.5625,11.4062,0.00000000,0.00000000,0.00000000,
1.890119,0.2277,-0.9754,-0.0071,-0.0425,-0.0212,0.0006,0.1432,-0.0132,-0.1158,-14.8473,47.7775,-18.7526,184.3438,101.9375,11.9219,0.00000000,0.00000000,0.00000000,
1.907144,0.2442,-0.9651,-0.0214,-0.0425,-0.0212,0.0006,0.1432,-0.0132,-0.1158,-14.8473,47.7775,-18.7526,184.3438,101.9375,11.9219,0.00000000,0.00000000,0.00000000,
1.911388,0.2442,-0.9651,-0.0214,0.0044,-0.0599,-0.0129,0.1432,-0.0132,-0.1158,-14.8473,47.7775,-18.7526,184.3438,101.9375,11.9219,0.00000000,0.00000000,0.00000000,
1.914165,0.2442,-0.9651,-0.0214,-0.0299,-0.0610,-0.0726,0.1432,-0.0132,-0.1158,-14.8473,47.7775,-18.7526,184.3438,101.9375,11.9219,0.00000000,0.00000000,0.00000000,
1.927642,0.2442,-0.9651,-0.0214,-0.0299,-0.0610,-0.0726,0.1432,-0.0132,-0.1158,-14.8473,47.7775,-18.7526,184.4062,102.1719,12.1094,0.00000000,0.00000000,0.00000000,
1.939319,0.2442,-0.9651,-0.0214,-0.0299,-0.0610,-0.0726,0.1717,0.0433,-0.0987,-14.8473,47.7775,-18.7526,184.4062,102.1719,12.1094,0.00000000,0.00000000,0.00000000,
1.942746,0.2442,-0.9651,-0.0214,-0.0299,-0.0610,-0.0726,0.1717,0.0433,-0.0987,-14.3788,47.2909,-18.4255,184.4062,102.1719,12.1094,0.00000000,0.00000000,0.00000000,
1.967740,0.2442,-0.9651,-0.0214,0.0538,-0.0321,-0.1862,0.1717,0.0433,-0.0987,-14.3788,47.2909,-18.4255,184.4062,102.1719,12.1094,0.00000000,0.00000000,0.00000000,
1.972231,0.2382,-0.9699,0.0043,0.0538,-0.0321,-0.1862,0.1717,0.0433,-0.0987,-14.3788,47.2909,-18.4255,184.4062,102.1719,12.1094,0.00000000,0.00000000,0.00000000,
1.975189,0.2382,-0.9699,0.0043,0.0538,-0.0321,-0.1862,0.1717,0.0433,-0.0987,-14.3788,47.2909,-18.4255,184.7344,102.6406,12.5156,0.00000000,0.00000000,0.00000000,
1.978143,0.2382,-0.9699,0.0043,0.0538,-0.0321,-0.1862,0.2549,0.1128,-0.1019,-14.3788,47.2909,-18.4255,184.7344,102.6406,12.5156,0.00000000,0.00000000,0.00000000,
1.998453,0.2382,-0.9699,0.0043,0.0538,-0.0321,-0.1862,0.2549,0.1128,-0.1019,-13.6483,47.0794,-19.9015,184.7344,102.6406,12.5156,0.00000000,0.00000000,0.00000000,
2.011920,0.2382,-0.9699,0.0043,0.0538,-0.0321,-0.1862,0.2549,0.1128,-0.1019,-13.6483,47.0794,-19.9015,184.9844,102.9062,12.7656,0.00000000,0.00000000,0.00000000,
2.031021,0.2382,-0.9699,0.0043,-0.0326,-0.0059,-0.1032,0.2549,0.1128,-0.1019,-13.6483,47.0794,-19.9015,184.9844,102.9062,12.7656,0.00000000,0.00000000,0.00000000,
2.035512,0.2382,-0.9699,0.0043,-0.0748,-0.0194,-0.2082,0.2549,0.1128,-0.1019,-13.6483,47.0794,-19.9015,184.9844,102.9062,12.7656,0.00000000,0.00000000,0.00000000,
2.038562,0.2353,-0.9700,0.0418,-0.0748,-0.0194,-0.2082,0.2549,0.1128,-0.1019,-13.6483,47.0794,-19.9015,184.9844,102.9062,12.7656,0.00000000,0.00000000,0.00000000,
2.053142,0.2353,-0.9700,0.0418,-0.0748,-0.0194,-0.2082,0.2549,0.1128,-0.1019,-13.6483,47.0794,-19.9015,185.1406,103.0156,12.8906,0.00000000,0.00000000,0.00000000,
2.057292,0.2353,-0.9700,0.0418,-0.0748,-0.0194,-0.2082,0.3246,0.1798,-0.1670,-13.6483,47.0794,-19.9015,185.1406,103.0156,12.8906,0.00000000,0.00000000,0.00000000,
2.078061,0.2353,-0.9700,0.0418,-0.0748,-0.0194,-0.2082,0.3246,0.1798,-0.1670,-14.5436,46.7924,-21.0557,185.1406,103.0156,12.8906,0.00000000,0.00000000,0.00000000,
2.088083,0.2353,-0.9700,0.0418,-0.1740,-0.0722,-0.0095,0.3246,0.1798,-0.1670,-14.5436,46.7924,-21.0557,185.1406,103.0156,12.8906,0.00000000,0.00000000,0.00000000,
2.094041,0.2353,-0.9700,0.0418,-0.1740,-0.0722,-0.0095,0.3246,0.1798,-0.1670,-14.5436,46.7924,-21.0557,185.2500,103.0938,13.0312,0.00000000,0.00000000,0.00000000,
2.097298,0.2353,-0.9700,0.0418,-0.1740,-0.0722,-0.0095,0.2626,1.2579,-0.4152,-14.5436,46.7924,-21.0557,185.2500,103.0938,13.0312,0.00000000,0.00000000,0.00000000,
2.099141,0.1648,-1.0150,-0.0590,-0.1740,-0.0722,-0.0095,0.2626,1.2579,-0.4152,-14.5436,46.7924,-21.0557,185.2500,103.0938,13.0312,0.00000000,0.00000000,0.00000000,
2.136536,0.1648,-1.0150,-0.0590,-0.1740,-0.0722,-0.0095,0.2626,1.2579,-0.4152,-14.5436,46.7924,-21.0557,185.2344,103.1250,13.1250,0.00000000,0.00000000,0.00000000,
2.140483,0.1648,-1.0150,-0.0590,-0.1740,-0.0722,-0.0095,0.2626,1.2579,-0.4152,-14.2093,45.9914,-22.1666,185.2344,103.1250,13.1250,0.00000000,0.00000000,0.00000000,
2.150672,0.1648,-1.0150,-0.0590,-0.5417,-0.4460,-1.1166,0.2626,1.2579,-0.4152,-14.2093,45.9914,-22.1666,185.2344,103.1250,13.1250,0.00000000,0.00000000,0.00000000,
2.153802,0.1648,-1.0150,-0.0590,-0.5235,-0.4229,-1.2192,0.2626,1.2579,-0.4152,-14.2093,45.9914,-22.1666,185.2344,103.1250,13.1250,0.00000000,0.00000000,0.00000000,
2.170184,-0.3834,-1.1445,-0.0868,-0.5235,-0.4229,-1.2192,0.2626,1.2579,-0.4152,-14.2093,45.9914,-22.1666,185.2344,103.1250,13.1250,0.00000000,0.00000000,0.00000000,
2.178297,-0.3834,-1.1445,-0.0868,-0.5235,-0.4229,-1.2192,0.0719,1.5809,0.3914,-14.2093,45.9914,-22.1666,185.2344,103.1250,13.1250,0.00000000,0.00000000,0.00000000,
2.181762,-0.3834,-1.1445,-0.0868,-0.5235,-0.4229,-1.2192,0.0719,1.5809,0.3914,-14.2093,45.9914,-22.1666,185.9688,103.9531,13.9531,0.00000000,0.00000000,0.00000000,
2.197753,-0.3834,-1.1445,-0.0868,-0.5235,-0.4229,-1.2192,0.0719,1.5809,0.3914,-11.2865,46.1966,-23.8693,185.9688,103.9531,13.9531,0.00000000,0.00000000,0.00000000,
2.211281,-0.3834,-1.1445,-0.0868,-5.0347,-1.8484,-1.1419,0.0719,1.5809,0.3914,-11.2865,46.1966,-23.8693,185.9688,103.9531,13.9531,0.00000000,0.00000000,0.00000000,
2.221856,-0.3834,-1.1445,-0.0868,-5.0347,-1.8484,-1.1419,0.0719,1.5809,0.3914,-11.2865,46.1966,-23.8693,186.2656,104.1562,14.1562,0.00000000,0.00000000,0.00000000,
2.239811,-0.0102,-1.0884,-0.0635,-5.0347,-1.8484,-1.1419,0.0719,1.5809,0.3914,-11.2865,46.1966,-23.8693,186.2656,104.1562,14.1562,0.00000000,0.00000000,0.00000000,
2.258193,-0.0102,-1.0884,-0.0635,-5.0347,-1.8484,-1.1419,-0.0488,-0.6243,0.5892,-11.2865,46.1966,-23.8693,186.2656,104.1562,14.1562,0.00000000,0.00000000,0.00000000,
2.262623,-0.0102,-1.0884,-0.0635,-5.0347,-1.8484,-1.1419,-0.0488,-0.6243,0.5892,-11.2865,46.1966,-23.8693,186.2656,75.9375,14.0312,0.00000000,0.00000000,0.00000000,
2.271217,-0.0102,-1.0884,-0.0635,-4.3772,-0.7024,-1.9904,-0.0488,-0.6243,0.5892,-11.2865,46.1966,-23.8693,186.2656,75.9375,14.0312,0.00000000,0.00000000,0.00000000,
2.276290,-0.0102,-1.0884,-0.0635,-3.9748,-0.6281,-1.7891,-0.0488,-0.6243,0.5892,-11.2865,46.1966,-23.8693,186.2656,75.9375,14.0312,0.00000000,0.00000000,0.00000000,
2.278970,-0.0102,-1.0884,-0.0635,-3.9748,-0.6281,-1.7891,-0.0488,-0.6243,0.5892,-9.9167,46.3358,-23.1065,186.2656,75.9375,14.0312,0.00000000,0.00000000,0.00000000,
2.297068,0.6784,-0.7735,0.2901,-3.9748,-0.6281,-1.7891,-0.0488,-0.6243,0.5892,-9.9167,46.3358,-23.1065,186.2656,75.9375,14.0312,0.00000000,0.00000000,0.00000000,
2.299586,0.6784,-0.7735,0.2901,-3.9748,-0.6281,-1.7891,-0.4066,-0.4122,0.6506,-9.9167,46.3358,-23.1065,186.2656,75.9375,14.0312,0.00000000,0.00000000,0.00000000,
2.304558,0.6784,-0.7735,0.2901,-3.9748,-0.6281,-1.7891,-0.4066,-0.4122,0.6506,-9.9167,46.3358,-23.1065,186.8438,75.4531,14.5000,0.00000000,0.00000000,0.00000000,
2.331366,0.6784,-0.7735,0.2901,3.3989,1.1173,1.4448,-0.4066,-0.4122,0.6506,-9.9167,46.3358,-23.1065,186.8438,75.4531,14.5000,0.00000000,0.00000000,0.00000000,
2.339985,0.6784,-0.7735,0.2901,3.3989,1.1173,1.4448,-0.4066,-0.4122,0.6506,-8.1601,46.8554,-21.3093,186.8438,75.4531,14.5000,0.00000000,0.00000000,0.00000000,
2.344870,0.6784,-0.7735,0.2901,3.3989,1.1173,1.4448,-0.4066,-0.4122,0.6506,-8.1601,46.8554,-21.3093,187.3594,75.2031,14.5625,0.00000000,0.00000000,0.00000000,
2.371476,0.7465,-0.8426,0.3351,3.3989,1.1173,1.4448,-0.4066,-0.4122,0.6506,-8.1601,46.8554,-21.3093,187.3594,75.2031,14.5625,0.00000000,0.00000000,0.00000000,
2.381303,0.7465,-0.8426,0.3351,3.3989,1.1173,1.4448,-0.1838,-0.0938,-0.0336,-8.1601,46.8554,-21.3093,187.3594,75.2031,14.5625,0.00000000,0.00000000,0.00000000,
2.391411,0.7465,-0.8426,0.3351,3.3989,1.1173,1.4448,-0.1838,-0.0938,-0.0336,-8.1601,46.8554,-21.3093,190.2031,74.9219,14.6719,0.00000000,0.00000000,0.00000000,
2.396681,0.7465,-0.8426,0.3351,7.4526,2.1705,3.6374,-0.1838,-0.0938,-0.0336,-8.1601,46.8554,-21.3093,190.2031,74.9219,14.6719,0.00000000,0.00000000,0.00000000,
2.399938,0.7465,-0.8426,0.3351,7.2161,2.1087,3.5868,-0.1838,-0.0938,-0.0336,-8.1601,46.8554,-21.3093,190.2031,74.9219,14.6719,0.00000000,0.00000000,0.00000000,
2.402452,0.7465,-0.8426,0.3351,7.2161,2.1087,3.5868,-0.1838,-0.0938,-0.0336,-8.8748,47.1646,-21.0879,190.2031,74.9219,14.6719,0.00000000,0.00000000,0.00000000,
2.427273,0.7465,-0.8426,0.3351,7.2161,2.1087,3.5868,-0.1838,-0.0938,-0.0336,-8.8748,47.1646,-21.0879,195.2188,74.2812,14.9219,0.00000000,0.00000000,0.00000000,
2.439919,0.1290,-0.9956,0.0232,7.2161,2.1087,3.5868,-0.1838,-0.0938,-0.0336,-8.8748,47.1646,-21.0879,195.2188,74.2812,14.9219,0.00000000,0.00000000,0.00000000,
2.454786,0.1290,-0.9956,0.0232,2.1051,-0.1840,0.6834,-0.1838,-0.0938,-0.0336,-8.8748,47.1646,-21.0879,195.2188,74.2812,14.9219,0.00000000,0.00000000,0.00000000,
2.460453,0.1290,-0.9956,0.0232,2.1051,-0.1840,0.6834,-0.1114,0.0610,0.1031,-8.8748,47.1646,-21.0879,195.2188,74.2812,14.9219,0.00000000,0.00000000,0.00000000,
2.471418,0.1290,-0.9956,0.0232,2.1051,-0.1840,0.6834,-0.1114,0.0610,0.1031,-8.8748,47.1646,-21.0879,196.0469,75.8438,12.9062,0.00000000,0.00000000,0.00000000,
2.478551,0.1290,-0.9956,0.0232,2.1051,-0.1840,0.6834,-0.1114,0.0610,0.1031,-8.1384,47.5197,-20.7989,196.0469,75.8438,12.9062,0.00000000,0.00000000,0.00000000,
2.502339,0.1290,-0.9956,0.0232,2.1051,-0.1840,0.6834,-0.0398,0.0332,0.0849,-8.1384,47.5197,-20.7989,196.0469,75.8438,12.9062,0.00000000,0.00000000,0.00000000,
2.506416,0.1724,-0.9815,0.0390,2.1051,-0.1840,0.6834,-0.0398,0.0332,0.0849,-8.1384,47.5197,-20.7989,196.0469,75.8438,12.9062,0.00000000,0.00000000,0.00000000,
2.510922,0.1724,-0.9815,0.0390,-0.0187,0.3801,0.5460,-0.0398,0.0332,0.0849,-8.1384,47.5197,-20.7989,196.0469,75.8438,12.9062,0.00000000,0.00000000,0.00000000,
2.513789,0.1724,-0.9815,0.0390,0.0151,0.3764,0.5448,-0.0398,0.0332,0.0849,-8.1384,47.5197,-20.7989,196.0469,75.8438,12.9062,0.00000000,0.00000000,0.00000000,
2.516511,0.1724,-0.9815,0.0390,0.0151,0.3764,0.5448,-0.0398,0.0332,0.0849,-8.1384,47.5197,-20.7989,193.7812,76.8594,11.8750,0.00000000,0.00000000,0.00000000,
2.538097,0.1724,-0.9815,0.0390,0.0151,0.3764,0.5448,-0.0398,0.0332,0.0849,-7.8140,47.1725,-20.5690,193.7812,76.8594,11.8750,0.00000000,0.00000000,0.00000000,
2.554846,0.1724,-0.9815,0.0390,0.0151,0.3764,0.5448,-0.0398,0.0332,0.0849,-7.8140,47.1725,-20.5690,190.4688,78.7500,10.2344,0.00000000,0.00000000,0.00000000,
2.571644,0.1724,-0.9815,0.0390,0.1391,-0.0567,0.1184,-0.0398,0.0332,0.0849,-7.8140,47.1725,-20.5690,190.4688,78.7500,10.2344,0.00000000,0.00000000,0.00000000,
2.576407,0.1497,-0.9759,0.0463,0.1391,-0.0567,0.1184,-0.0398,0.0332,0.0849,-7.8140,47.1725,-20.5690,190.4688,78.7500,10.2344,0.00000000,0.00000000,0.00000000,
2.581816,0.1497,-0.9759,0.0463,0.1391,-0.0567,0.1184,-0.0372,-0.0031,0.0812,-7.8140,47.1725,-20.5690,190.4688,78.7500,10.2344,0.00000000,0.00000000,0.00000000,
2.594509,0.1497,-0.9759,0.0463,0.1391,-0.0567,0.1184,-0.0372,-0.0031,0.0812,-7.8140,47.1725,-20.5690,188.2812,80.4844,8.8125,0.00000000,0.00000000,0.00000000,
2.598402,0.1497,-0.9759,0.0463,0.1391,-0.0567,0.1184,-0.0372,-0.0031,0.0812,-7.6779,46.9397,-20.2306,188.2812,80.4844,8.8125,0.00000000,0.00000000,0.00000000,
2.631313,0.1497,-0.9759,0.0463,-0.0165,0.0529,0.1677,-0.0372,-0.0031,0.0812,-7.6779,46.9397,-20.2306,188.2812,80.4844,8.8125,0.00000000,0.00000000,0.00000000,
2.635129,0.1648,-0.9821,0.0359,-0.0165,0.0529,0.1677,-0.0372,-0.0031,0.0812,-7.6779,46.9397,-20.2306,188.2812,80.4844,8.8125,0.00000000,0.00000000,0.00000000,
2.637472,0.1648,-0.9821,0.0359,0.0176,0.0575,0.1899,-0.0372,-0.0031,0.0812,-7.6779,46.9397,-20.2306,188.2812,80.4844,8.8125,0.00000000,0.00000000,0.00000000,
2.639375,0.1648,-0.9821,0.0359,0.0176,0.0575,0.1899,-0.0372,-0.0031,0.0812,-7.6779,46.9397,-20.2306,187.6719,80.9062,8.6562,0.00000000,0.00000000,0.00000000,
2.664129,0.1648,-0.9821,0.0359,0.0176,0.0575,0.1899,-0.0520,-0.1560,0.0912,-7.6779,46.9397,-20.2306,187.6719,80.9062,8.6562,0.00000000,0.00000000,0.00000000,
2.677138,0.1648,-0.9821,0.0359,0.0176,0.0575,0.1899,-0.0520,-0.1560,0.0912,-7.6779,46.9397,-20.2306,187.9531,80.7500,8.8906,0.00000000,0.00000000,0.00000000,
2.680151,0.1648,-0.9821,0.0359,0.0176,0.0575,0.1899,-0.0520,-0.1560,0.0912,-7.8809,47.0875,-19.7907,187.9531,80.7500,8.8906,0.00000000,0.00000000,0.00000000,
2.691316,0.1648,-0.9821,0.0359,0.2093,0.0351,0.1586,-0.0520,-0.1560,0.0912,-7.8809,47.0875,-19.7907,187.9531,80.7500,8.8906,0.00000000,0.00000000,0.00000000,
2.703749,0.1551,-0.9839,0.0354,0.2093,0.0351,0.1586,-0.0520,-0.1560,0.0912,-7.8809,47.0875,-19.7907,187.9531,80.7500,8.8906,0.00000000,0.00000000,0.00000000,
2.707247,0.1551,-0.9839,0.0354,0.2093,0.0351,0.1586,-0.0069,-0.0888,0.2238,-7.8809,47.0875,-19.7907,187.9531,80.7500,8.8906,0.00000000,0.00000000,0.00000000,
2.722542,0.1551,-0.9839,0.0354,0.2093,0.0351,0.1586,-0.0069,-0.0888,0.2238,-7.8809,47.0875,-19.7907,187.8906,81.0781,8.6250,0.00000000,0.00000000,0.00000000,
2.741353,0.1551,-0.9839,0.0354,0.2093,0.0351,0.1586,-0.0069,-0.0888,0.2238,-6.6173,47.6398,-20.8987,187.8906,81.0781,8.6250,0.00000000,0.00000000,0.00000000,
2.755336,0.1551,-0.9839,0.0354,0.2024,0.0531,0.1931,-0.0069,-0.0888,0.2238,-6.6173,47.6398,-20.8987,187.8906,81.0781,8.6250,0.00000000,0.00000000,0.00000000,
2.758505,0.1551,-0.9839,0.0354,0.2890,0.0620,0.1076,-0.0069,-0.0888,0.2238,-6.6173,47.6398,-20.8987,187.8906,81.0781,8.6250,0.00000000,0.00000000,0.00000000,
2.760716,0.1551,-0.9839,0.0354,0.2890,0.0620,0.1076,-0.0069,-0.0888,0.2238,-6.6173,47.6398,-20.8987,187.8125,81.2812,8.4531,0.00000000,0.00000000,0.00000000,
2.771630,0.1141,-0.9951,0.0499,0.2890,0.0620,0.1076,-0.0069,-0.0888,0.2238,-6.6173,47.6398,-20.8987,187.8125,81.2812,8.4531,0.00000000,0.00000000,0.00000000,
2.789059,0.1141,-0.9951,0.0499,0.2890,0.0620,0.1076,0.2680,0.0848,0.2967,-6.6173,47.6398,-20.8987,187.8125,81.2812,8.4531,0.00000000,0.00000000,0.00000000,
2.797640,0.1141,-0.9951,0.0499,0.2890,0.0620,0.1076,0.2680,0.0848,0.2967,-6.7191,47.2868,-20.9401,187.8125,81.2812,8.4531,0.00000000,0.00000000,0.00000000,
2.802402,0.1141,-0.9951,0.0499,0.2890,0.0620,0.1076,0.2680,0.0848,0.2967,-6.7191,47.2868,-20.9401,187.7031,81.5000,8.2500,0.00000000,0.00000000,0.00000000,
2.812277,0.1141,-0.9951,0.0499,0.0710,-0.1527,-0.0506,0.2680,0.0848,0.2967,-6.7191,47.2868,-20.9401,187.7031,81.5000,8.2500,0.00000000,0.00000000,0.00000000,
2.832393,0.1006,-0.9672,0.0867,0.0710,-0.1527,-0.0506,0.2680,0.0848,0.2967,-6.7191,47.2868,-20.9401,187.7031,81.5000,8.2500,0.00000000,0.00000000,0.00000000,
2.844664,0.1006,-0.9672,0.0867,0.0710,-0.1527,-0.0506,0.2680,0.0848,0.2967,-6.7191,47.2868,-20.9401,187.5469,81.7500,8.0156,0.00000000,0.00000000,0.00000000,
2.865503,0.1006,-0.9672,0.0867,0.0710,-0.1527,-0.0506,0.2434,0.0743,0.1578,-6.7191,47.2868,-20.9401,187.5469,81.7500,8.0156,0.00000000,0.00000000,0.00000000,
2.874729,0.1006,-0.9672,0.0867,-0.0845,0.1979,0.3049,0.2434,0.0743,0.1578,-6.7191,47.2868,-20.9401,187.5469,81.7500,8.0156,0.00000000,0.00000000,0.00000000,
2.878817,0.1006,-0.9672,0.0867,-0.0845,0.1907,0.2508,0.2434,0.0743,0.1578,-6.7191,47.2868,-20.9401,187.5469,81.7500,8.0156,0.00000000,0.00000000,0.00000000,
2.881592,0.1006,-0.9672,0.0867,-0.0845,0.1907,0.2508,0.2434,0.0743,0.1578,-5.6139,47.4780,-21.3289,187.5469,81.7500,8.0156,0.00000000,0.00000000,0.00000000,
2.889262,0.1006,-0.9672,0.0867,-0.0845,0.1907,0.2508,0.2434,0.0743,0.1578,-5.6139,47.4780,-21.3289,187.3438,81.9219,7.8594,0.00000000,0.00000000,0.00000000,
2.904728,0.1041,-0.9793,0.0815,-0.0845,0.1907,0.2508,0.2434,0.0743,0.1578,-5.6139,47.4780,-21.3289,187.3438,81.9219,7.8594,0.00000000,0.00000000,0.00000000,
2.908192,0.1041,-0.9793,0.0815,-0.0845,0.1907,0.2508,0.0610,0.0036,-0.1051,-5.6139,47.4780,-21.3289,187.3438,81.9219,7.8594,0.00000000,0.00000000,0.00000000,
2.927739,0.1041,-0.9793,0.0815,-0.0845,0.1907,0.2508,0.0610,0.0036,-0.1051,-5.6139,47.4780,-21.3289,186.7969,82.1562,7.6562,0.00000000,0.00000000,0.00000000,
2.931701,0.1041,-0.9793,0.0815,-0.0610,0.0770,0.1767,0.0610,0.0036,-0.1051,-5.6139,47.4780,-21.3289,186.7969,82.1562,7.6562,0.00000000,0.00000000,0.00000000,
2.938426,0.1041,-0.9793,0.0815,-0.0610,0.0770,0.1767,0.0610,0.0036,-0.1051,-6.3552,47.0872,-21.6522,186.7969,82.1562,7.6562,0.00000000,0.00000000,0.00000000,
2.969497,0.1041,-0.9793,0.0815,-0.0610,0.0770,0.1767,0.0610,0.0036,-0.1051,-6.3552,47.0872,-21.6522,186.2500,82.4062,7.4531,0.00000000,0.00000000,0.00000000,
2.973752,0.1220,-0.9797,0.0881,-0.0610,0.0770,0.1767,0.0610,0.0036,-0.1051,-6.3552,47.0872,-21.6522,186.2500,82.4062,7.4531,0.00000000,0.00000000,0.00000000,
2.988432,0.1220,-0.9797,0.0881,-0.0610,0.0770,0.1767,0.0688,0.0993,-0.2030,-6.3552,47.0872,-21.6522,186.2500,82.4062,7.4531,0.00000000,0.00000000,0.00000000,
2.993625,0.1220,-0.9797,0.0881,-0.0520,0.0486,0.1993,0.0688,0.0993,-0.2030,-6.3552,47.0872,-21.6522,186.2500,82.4062,7.4531,0.00000000,0.00000000,0.00000000,
2.996521,0.1220,-0.9797,0.0881,-0.1212,0.0319,0.1477,0.0688,0.0993,-0.2030,-6.3552,47.0872,-21.6522,186.2500,82.4062,7.4531,0.00000000,0.00000000,0.00000000,
2.998499,0.1220,-0.9797,0.0881,-0.1212,0.0319,0.1477,0.0688,0.0993,-0.2030,-6.4437,46.8935,-22.2993,186.2500,82.4062,7.4531,0.00000000,0.00000000,0.00000000,
3.010754,0.1220,-0.9797,0.0881,-0.1212,0.0319,0.1477,0.0688,0.0993,-0.2030,-6.4437,46.8935,-22.2993,185.5156,82.9375,6.9062,0.00000000,0.00000000,0.00000000,
3.033067,0.1027,-1.0179,0.0831,-0.1212,0.0319,0.1477,0.0688,0.0993,-0.2030,-6.4437,46.8935,-22.2993,185.5156,82.9375,6.9062,0.00000000,0.00000000,0.00000000,
3.052110,0.1027,-1.0179,0.0831,-0.1497,-0.1045,0.0712,0.0688,0.0993,-0.2030,-6.4437,46.8935,-22.2993,185.5156,82.9375,6.9062,0.00000000,0.00000000,0.00000000,
3.055490,0.1027,-1.0179,0.0831,-0.1497,-0.1045,0.0712,0.0688,0.0993,-0.2030,-6.4437,46.8935,-22.2993,185.0312,83.3594,6.3594,0.00000000,0.00000000,0.00000000,
3.066675,0.1027,-1.0179,0.0831,-0.1497,-0.1045,0.0712,0.0710,0.1693,-0.3075,-6.4437,46.8935,-22.2993,185.0312,83.3594,6.3594,0.00000000,0.00000000,0.00000000,
3.078200,0.1027,-1.0179,0.0831,-0.1497,-0.1045,0.0712,0.0710,0.1693,-0.3075,-7.2392,46.6068,-22.7329,185.0312,83.3594,6.3594,0.00000000,0.00000000,0.00000000,
3.095300,0.1027,-1.0179,0.0831,-0.1497,-0.1045,0.0712,0.0710,0.1693,-0.3075,-7.2392,46.6068,-22.7329,184.4688,83.4844,5.6250,0.00000000,0.00000000,0.00000000,
3.106501,0.1784,-1.0605,0.0709,-0.1497,-0.1045,0.0712,0.0710,0.1693,-0.3075,-7.2392,46.6068,-22.7329,184.4688,83.4844,5.6250,0.00000000,0.00000000,0.00000000,
3.110383,0.1784,-1.0605,0.0709,-0.1497,-0.1045,0.0712,0.2553,0.1830,-0.3347,-7.2392,46.6068,-22.7329,184.4688,83.4844,5.6250,0.00000000,0.00000000,0.00000000,
3.113624,0.1784,-1.0605,0.0709,-0.1875,-0.3311,-0.0195,0.2553,0.1830,-0.3347,-7.2392,46.6068,-22.7329,184.4688,83.4844,5.6250,0.00000000,0.00000000,0.00000000,
3.116889,0.1784,-1.0605,0.0709,-0.2711,-0.3199,-0.1221,0.2553,0.1830,-0.3347,-7.2392,46.6068,-22.7329,184.4688,83.4844,5.6250,0.00000000,0.00000000,0.00000000,
3.137032,0.1784,-1.0605,0.0709,-0.2711,-0.3199,-0.1221,0.2553,0.1830,-0.3347,-7.2392,46.6068,-22.7329,184.1719,83.4688,5.1406,0.00000000,0.00000000,0.00000000,
3.140176,0.1784,-1.0605,0.0709,-0.2711,-0.3199,-0.1221,0.2553,0.1830,-0.3347,-7.6595,45.8733,-23.6616,184.1719,83.4688,5.1406,0.00000000,0.00000000,0.00000000,
3.170089,0.8147,-1.3639,-0.2987,-0.2711,-0.3199,-0.1221,0.2553,0.1830,-0.3347,-7.6595,45.8733,-23.6616,184.1719,83.4688,5.1406,0.00000000,0.00000000,0.00000000,
3.174078,0.8147,-1.3639,-0.2987,0.8328,-1.5217,-1.3727,0.2553,0.1830,-0.3347,-7.6595,45.8733,-23.6616,184.1719,83.4688,5.1406,0.00000000,0.00000000,0.00000000,
3.177535,0.8147,-1.3639,-0.2987,0.8328,-1.5217,-1.3727,0.2553,0.1830,-0.3347,-7.6595,45.8733,-23.6616,184.6562,82.7344,5.6875,0.00000000,0.00000000,0.00000000,
3.188475,0.8147,-1.3639,-0.2987,0.8328,-1.5217,-1.3727,0.2060,2.2935,-0.0009,-7.6595,45.8733,-23.6616,184.6562,82.7344,5.6875,0.00000000,0.00000000,0.00000000,
3.197691,0.8147,-1.3639,-0.2987,0.8328,-1.5217,-1.3727,0.2060,2.2935,-0.0009,-2.5969,45.8898,-23.9322,184.6562,82.7344,5.6875,0.00000000,0.00000000,0.00000000,
3.219187,0.8147,-1.3639,-0.2987,0.8328,-1.5217,-1.3727,0.2060,2.2935,-0.0009,-2.5969,45.8898,-23.9322,185.3438,82.0781,6.2500,0.00000000,0.00000000,0.00000000,
3.239163,0.8147,-1.3639,-0.2987,8.4913,-3.6782,-4.6263,0.2060,2.2935,-0.0009,-2.5969,45.8898,-23.9322,185.3438,82.0781,6.2500,0.00000000,0.00000000,0.00000000,
3.243048,1.4439,-0.5497,-0.6714,8.4913,-3.6782,-4.6263,0.2060,2.2935,-0.0009,-2.5969,45.8898,-23.9322,185.3438,82.0781,6.2500,0.00000000,0.00000000,0.00000000,
3.246370,1.4439,-0.5497,-0.6714,9.0476,-3.5091,-4.3796,0.2060,2.2935,-0.0009,-2.5969,45.8898,-23.9322,185.3438,82.0781,6.2500,0.00000000,0.00000000,0.00000000,
3.261787,1.4439,-0.5497,-0.6714,9.0476,-3.5091,-4.3796,0.2060,2.2935,-0.0009,-2.5969,45.8898,-23.9322,185.5625,81.8125,6.4688,0.00000000,0.00000000,0.00000000,
3.271457,1.4439,-0.5497,-0.6714,9.0476,-3.5091,-4.3796,-1.0731,5.3958,1.0166,-2.5969,45.8898,-23.9322,185.5625,81.8125,6.4688,0.00000000,0.00000000,0.00000000,
3.277597,1.4439,-0.5497,-0.6714,9.0476,-3.5091,-4.3796,-1.0731,5.3958,1.0166,4.7600,48.2532,-19.0751,185.5625,81.8125,6.4688,0.00000000,0.00000000,0.00000000,
3.297774,1.4439,-0.5497,-0.6714,13.1970,5.7086,-7.2098,-1.0731,5.3958,1.0166,4.7600,48.2532,-19.0751,185.5625,81.8125,6.4688,0.00000000,0.00000000,0.00000000,
3.306875,1.4439,-0.5497,-0.6714,13.1970,5.7086,-7.2098,-1.0731,5.3958,1.0166,4.7600,48.2532,-19.0751,186.3906,81.3594,7.0312,0.00000000,0.00000000,0.00000000,
3.309834,1.4439,-0.5497,-0.6714,13.1970,5.7086,-7.2098,-0.8719,2.0709,-0.6986,4.7600,48.2532,-19.0751,186.3906,81.3594,7.0312,0.00000000,0.00000000,0.00000000,
3.311944,1.1254,-0.5942,-0.4744,13.1970,5.7086,-7.2098,-0.8719,2.0709,-0.6986,4.7600,48.2532,-19.0751,186.3906,81.3594,7.0312,0.00000000,0.00000000,0.00000000,
3.338012,1.1254,-0.5942,-0.4744,13.1970,5.7086,-7.2098,-0.8719,2.0709,-0.6986,4.3926,49.2928,-14.7430,186.3906,81.3594,7.0312,0.00000000,0.00000000,0.00000000,
3.344249,1.1254,-0.5942,-0.4744,13.1970,5.7086,-7.2098,-0.8719,2.0709,-0.6986,4.3926,49.2928,-14.7430,187.4219,80.7031,7.6719,0.00000000,0.00000000,0.00000000,
3.363446,1.1254,-0.5942,-0.4744,9.5800,3.9599,-4.8056,-0.8719,2.0709,-0.6986,4.3926,49.2928,-14.7430,187.4219,80.7031,7.6719,0.00000000,0.00000000,0.00000000,
3.367594,1.1254,-0.5942,-0.4744,8.8968,3.7954,-4.4658,-0.8719,2.0709,-0.6986,4.3926,49.2928,-14.7430,187.4219,80.7031,7.6719,0.00000000,0.00000000,0.00000000,
3.370265,0.4428,-1.1646,-0.1575,8.8968,3.7954,-4.4658,-0.8719,2.0709,-0.6986,4.3926,49.2928,-14.7430,187.4219,80.7031,7.6719,0.00000000,0.00000000,0.00000000,
3.389298,0.4428,-1.1646,-0.1575,8.8968,3.7954,-4.4658,-0.9389,1.6569,-1.4107,4.3926,49.2928,-14.7430,187.4219,80.7031,7.6719,0.00000000,0.00000000,0.00000000,
3.392131,0.4428,-1.1646,-0.1575,8.8968,3.7954,-4.4658,-0.9389,1.6569,-1.4107,4.3926,49.2928,-14.7430,189.7188,78.9375,9.3750,0.00000000,0.00000000,0.00000000,
3.397945,0.4428,-1.1646,-0.1575,8.8968,3.7954,-4.4658,-0.9389,1.6569,-1.4107,3.3265,50.7682,-10.4818,189.7188,78.9375,9.3750,0.00000000,0.00000000,0.00000000,
3.415930,0.4428,-1.1646,-0.1575,2.2070,-1.5580,-1.1081,-0.9389,1.6569,-1.4107,3.3265,50.7682,-10.4818,189.7188,78.9375,9.3750,0.00000000,0.00000000,0.00000000,
3.428219,0.4428,-1.1646,-0.1575,2.2070,-1.5580,-1.1081,-0.9389,1.6569,-1.4107,3.3265,50.7682,-10.4818,192.0469,77.9219,9.6562,0.00000000,0.00000000,0.00000000,
3.438209,-0.2899,-1.2425,-0.2872,2.2070,-1.5580,-1.1081,-0.9389,1.6569,-1.4107,3.3265,50.7682,-10.4818,192.0469,77.9219,9.6562,0.00000000,0.00000000,0.00000000,
3.466559,-0.2899,-1.2425,-0.2872,2.2070,-1.5580,-1.1081,-0.8309,3.0122,-1.4601,3.3265,50.7682,-10.4818,192.0469,77.9219,9.6562,0.00000000,0.00000000,0.00000000,
3.471431,-0.2899,-1.2425,-0.2872,2.2070,-1.5580,-1.1081,-0.8309,3.0122,-1.4601,3.3265,50.7682,-10.4818,198.3125,78.2344,8.1562,0.00000000,0.00000000,0.00000000,
3.475840,-0.2899,-1.2425,-0.2872,-4.8807,-3.0099,-2.1143,-0.8309,3.0122,-1.4601,3.3265,50.7682,-10.4818,198.3125,78.2344,8.1562,0.00000000,0.00000000,0.00000000,
3.479347,-0.2899,-1.2425,-0.2872,-5.3953,-3.1911,-2.1645,-0.8309,3.0122,-1.4601,3.3265,50.7682,-10.4818,198.3125,78.2344,8.1562,0.00000000,0.00000000,0.00000000,
3.482084,-0.2899,-1.2425,-0.2872,-5.3953,-3.1911,-2.1645,-0.8309,3.0122,-1.4601,1.1218,52.0533,-6.6983,198.3125,78.2344,8.1562,0.00000000,0.00000000,0.00000000,
3.505779,-0.2899,-1.2425,-0.2872,-5.3953,-3.1911,-2.1645,-0.7008,1.4601,-1.2384,1.1218,52.0533,-6.6983,198.3125,78.2344,8.1562,0.00000000,0.00000000,0.00000000,
3.509654,-0.9156,-1.1626,-0.4800,-5.3953,-3.1911,-2.1645,-0.7008,1.4601,-1.2384,1.1218,52.0533,-6.6983,198.3125,78.2344,8.1562,0.00000000,0.00000000,0.00000000,
3.511720,-0.9156,-1.1626,-0.4800,-5.3953,-3.1911,-2.1645,-0.7008,1.4601,-1.2384,1.1218,52.0533,-6.6983,206.7188,81.4375,3.9062,0.00000000,0.00000000,0.00000000,
3.536972,-0.9156,-1.1626,-0.4800,-11.5924,-3.1494,-4.3088,-0.7008,1.4601,-1.2384,1.1218,52.0533,-6.6983,206.7188,81.4375,3.9062,0.00000000,0.00000000,0.00000000,
3.542354,-0.9156,-1.1626,-0.4800,-11.5924,-3.1494,-4.3088,-0.7008,1.4601,-1.2384,-1.1564,53.1034,-4.5516,206.7188,81.4375,3.9062,0.00000000,0.00000000,0.00000000,
3.566151,-0.9156,-1.1626,-0.4800,-11.5924,-3.1494,-4.3088,-0.7008,1.4601,-1.2384,-1.1564,53.1034,-4.5516,215.2344,84.1875,2.3750,0.00000000,0.00000000,0.00000000,
3.570560,-1.2693,-1.4255,0.0338,-11.5924,-3.1494,-4.3088,-0.7008,1.4601,-1.2384,-1.1564,53.1034,-4.5516,215.2344,84.1875,2.3750,0.00000000,0.00000000,0.00000000,
3.590224,-1.2693,-1.4255,0.0338,-11.5924,-3.1494,-4.3088,-0.5450,-0.3954,-0.1152,-1.1564,53.1034,-4.5516,215.2344,84.1875,2.3750,0.00000000,0.00000000,0.00000000,
3.595071,-1.2693,-1.4255,0.0338,-11.5924,-3.1494,-4.3088,-0.5450,-0.3954,-0.1152,-1.1564,53.1034,-4.5516,221.0938,84.7031,3.8906,0.00000000,0.00000000,0.00000000,
3.597698,-1.2693,-1.4255,0.0338,-13.5251,-3.6791,-1.9041,-0.5450,-0.3954,-0.1152,-1.1564,53.1034,-4.5516,221.0938,84.7031,3.8906,0.00000000,0.00000000,0.00000000,
3.600154,-1.2693,-1.4255,0.0338,-12.8913,-3.4552,-1.6772,-0.5450,-0.3954,-0.1152,-1.1564,53.1034,-4.5516,221.0938,84.7031,3.8906,0.00000000,0.00000000,0.00000000,
3.602411,-1.2693,-1.4255,0.0338,-12.8913,-3.4552,-1.6772,-0.5450,-0.3954,-0.1152,1.3628,54.8490,-3.1953,221.0938,84.7031,3.8906,0.00000000,0.00000000,0.00000000,
3.636598,-1.2693,-1.4255,0.0338,-12.8913,-3.4552,-1.6772,-0.5450,-0.3954,-0.1152,1.3628,54.8490,-3.1953,226.6875,83.0312,6.7188,0.00000000,0.00000000,0.00000000,
3.641442,0.0521,-1.3113,0.0826,-12.8913,-3.4552,-1.6772,-0.5450,-0.3954,-0.1152,1.3628,54.8490,-3.1953,226.6875,83.0312,6.7188,0.00000000,0.00000000,0.00000000,
3.659123,0.0521,-1.3113,0.0826,-9.9393,-3.2722,3.1898,-0.5450,-0.3954,-0.1152,1.3628,54.8490,-3.1953,226.6875,83.0312,6.7188,0.00000000,0.00000000,0.00000000,
3.690491,0.0521,-1.3113,0.0826,-9.9393,-3.2722,3.1898,0.0481,0.0593,2.1117,1.3628,54.8490,-3.1953,226.6875,83.0312,6.7188,0.00000000,0.00000000,0.00000000,
3.694208,0.0521,-1.3113,0.0826,-9.9393,-3.2722,3.1898,0.0481,0.0593,2.1117,5.9110,53.1483,-3.0812,226.6875,83.0312,6.7188,0.00000000,0.00000000,0.00000000,
3.697631,0.0521,-1.3113,0.0826,-9.9393,-3.2722,3.1898,0.0481,0.0593,2.1117,5.9110,53.1483,-3.0812,236.0000,79.7031,10.2969,0.00000000,0.00000000,0.00000000,
3.700504,0.1366,-0.9499,-0.0997,-9.9393,-3.2722,3.1898,0.0481,0.0593,2.1117,5.9110,53.1483,-3.0812,236.0000,79.7031,10.2969,0.00000000,0.00000000,0.00000000,
3.709541,0.1366,-0.9499,-0.0997,-9.9393,-3.2722,3.1898,-0.1900,-0.0100,0.3504,5.9110,53.1483,-3.0812,236.0000,79.7031,10.2969,0.00000000,0.00000000,0.00000000,
3.719228,0.1366,-0.9499,-0.0997,-2.5248,-2.1961,1.1599,-0.1900,-0.0100,0.3504,5.9110,53.1483,-3.0812,236.0000,79.7031,10.2969,0.00000000,0.00000000,0.00000000,
3.722418,0.1366,-0.9499,-0.0997,-2.4712,-2.1661,1.2307,-0.1900,-0.0100,0.3504,5.9110,53.1483,-3.0812,236.0000,79.7031,10.2969,0.00000000,0.00000000,0.00000000,
3.724144,0.1366,-0.9499,-0.0997,-2.4712,-2.1661,1.2307,-0.1900,-0.0100,0.3504,5.9110,53.1483,-3.0812,246.8438,103.6719,13.6719,0.00000000,0.00000000,0.00000000,
3.737549,0.1366,-0.9499,-0.0997,-2.4712,-2.1661,1.2307,-0.1900,-0.0100,0.3504,7.8441,54.1504,-2.9418,246.8438,103.6719,13.6719,0.00000000,0.00000000,0.00000000,
3.760572,0.1366,-0.9499,-0.0997,-2.4712,-2.1661,1.2307,-0.1900,-0.0100,0.3504,7.8441,54.1504,-2.9418,256.4219,107.3438,17.3438,0.00000000,0.00000000,0.00000000,
3.769952,0.1855,-0.9803,-0.0858,-2.4712,-2.1661,1.2307,-0.1900,-0.0100,0.3504,7.8441,54.1504,-2.9418,256.4219,107.3438,17.3438,0.00000000,0.00000000,0.00000000,
3.777363,0.1855,-0.9803,-0.0858,0.2858,-0.1501,-0.1227,-0.1900,-0.0100,0.3504,7.8441,54.1504,-2.9418,256.4219,107.3438,17.3438,0.00000000,0.00000000,0.00000000,
3.790299,0.1855,-0.9803,-0.0858,0.2858,-0.1501,-0.1227,-0.2382,-0.1423,0.1898,7.8441,54.1504,-2.9418,256.4219,107.3438,17.3438,0.00000000,0.00000000,0.00000000,
3.796712,0.1855,-0.9803,-0.0858,0.2858,-0.1501,-0.1227,-0.2382,-0.1423,0.1898,7.8637,53.9124,-2.2635,256.4219,107.3438,17.3438,0.00000000,0.00000000,0.00000000,
3.802642,0.1855,-0.9803,-0.0858,0.2858,-0.1501,-0.1227,-0.2382,-0.1423,0.1898,7.8637,53.9124,-2.2635,262.2344,110.0312,20.0156,0.00000000,0.00000000,0.00000000,
3.839138,0.1855,-0.9803,-0.0858,-0.1574,0.0603,0.2388,-0.2382,-0.1423,0.1898,7.8637,53.9124,-2.2635,262.2344,110.0312,20.0156,0.00000000,0.00000000,0.00000000,
3.843424,0.1785,-0.9760,-0.1261,-0.1574,0.0603,0.2388,-0.2382,-0.1423,0.1898,7.8637,53.9124,-2.2635,262.2344,110.0312,20.0156,0.00000000,0.00000000,0.00000000,
3.846851,0.1785,-0.9760,-0.1261,-0.0980,0.0559,0.3418,-0.2382,-0.1423,0.1898,7.8637,53.9124,-2.2635,262.2344,110.0312,20.0156,0.00000000,0.00000000,0.00000000,
3.849277,0.1785,-0.9760,-0.1261,-0.0980,0.0559,0.3418,-0.2382,-0.1423,0.1898,7.8637,53.9124,-2.2635,264.5469,112.7031,22.5156,0.00000000,0.00000000,0.00000000,
3.875792,0.1785,-0.9760,-0.1261,-0.0980,0.0559,0.3418,-0.2663,-0.1081,0.1409,7.8637,53.9124,-2.2635,264.5469,112.7031,22.5156,0.00000000,0.00000000,0.00000000,
3.885421,0.1785,-0.9760,-0.1261,-0.0980,0.0559,0.3418,-0.2663,-0.1081,0.1409,8.9036,53.4010,-0.6079,264.5469,112.7031,22.5156,0.00000000,0.00000000,0.00000000,
3.889016,0.1785,-0.9760,-0.1261,-0.0980,0.0559,0.3418,-0.2663,-0.1081,0.1409,8.9036,53.4010,-0.6079,261.4688,110.3906,19.9844,0.00000000,0.00000000,0.00000000,
3.900441,0.1785,-0.9760,-0.1261,0.0642,0.0051,0.1329,-0.2663,-0.1081,0.1409,8.9036,53.4010,-0.6079,261.4688,110.3906,19.9844,0.00000000,0.00000000,0.00000000,
3.906597,0.1704,-0.9897,-0.1595,0.0642,0.0051,0.1329,-0.2663,-0.1081,0.1409,8.9036,53.4010,-0.6079,261.4688,110.3906,19.9844,0.00000000,0.00000000,0.00000000,
3.911603,0.1704,-0.9897,-0.1595,0.0642,0.0051,0.1329,-0.2158,-0.0938,0.2189,8.9036,53.4010,-0.6079,261.4688,110.3906,19.9844,0.00000000,0.00000000,0.00000000,
3.928063,0.1704,-0.9897,-0.1595,0.0642,0.0051,0.1329,-0.2158,-0.0938,0.2189,8.9036,53.4010,-0.6079,256.3594,105.3750,14.8906,0.00000000,0.00000000,0.00000000,
3.936927,0.1704,-0.9897,-0.1595,0.0642,0.0051,0.1329,-0.2158,-0.0938,0.2189,9.7054,53.1932,-0.2732,256.3594,105.3750,14.8906,0.00000000,0.00000000,0.00000000,
3.960971,0.1704,-0.9897,-0.1595,0.0514,-0.1120,-0.0766,-0.2158,-0.0938,0.2189,9.7054,53.1932,-0.2732,256.3594,105.3750,14.8906,0.00000000,0.00000000,0.00000000,
3.966563,0.1704,-0.9897,-0.1595,0.2019,-0.0924,-0.0351,-0.2158,-0.0938,0.2189,9.7054,53.1932,-0.2732,256.3594,105.3750,14.8906,0.00000000,0.00000000,0.00000000,
3.971294,0.1704,-0.9897,-0.1595,0.2019,-0.0924,-0.0351,-0.2158,-0.0938,0.2189,9.7054,53.1932,-0.2732,254.4375,102.5156,11.8906,0.00000000,0.00000000,0.00000000,
3.975182,0.1589,-1.0222,-0.1782,0.2019,-0.0924,-0.0351,-0.2158,-0.0938,0.2189,9.7054,53.1932,-0.2732,254.4375,102.5156,11.8906,0.00000000,0.00000000,0.00000000,
3.991134,0.1589,-1.0222,-0.1782,0.2019,-0.0924,-0.0351,-0.0446,-0.0935,0.4749,9.7054,53.1932,-0.2732,254.4375,102.5156,11.8906,0.00000000,0.00000000,0.00000000,
3.998861,0.1589,-1.0222,-0.1782,0.2019,-0.0924,-0.0351,-0.0446,-0.0935,0.4749,11.3061,52.7373,-0.2875,254.4375,102.5156,11.8906,0.00000000,0.00000000,0.00000000,
4.015291,0.1589,-1.0222,-0.1782,0.2019,-0.0924,-0.0351,-0.0446,-0.0935,0.4749,11.3061,52.7373,-0.2875,254.0781,102.6094,11.8125,0.00000000,0.00000000,0.00000000,
4.022500,0.1589,-1.0222,-0.1782,0.3513,-0.3386,-0.2383,-0.0446,-0.0935,0.4749,11.3061,52.7373,-0.2875,254.0781,102.6094,11.8125,0.00000000,0.00000000,0.00000000,
4.039816,0.1594,-1.1183,-0.1562,0.3513,-0.3386,-0.2383,-0.0446,-0.0935,0.4749,11.3061,52.7373,-0.2875,254.0781,102.6094,11.8125,0.00000000,0.00000000,0.00000000,
4.052334,0.1594,-1.1183,-0.1562,0.3513,-0.3386,-0.2383,-0.0446,-0.0935,0.4749,11.3061,52.7373,-0.2875,253.3281,102.3594,11.3438,0.00000000,0.00000000,0.00000000,
4.071999,0.1594,-1.1183,-0.1562,0.3513,-0.3386,-0.2383,0.1366,-0.2092,0.9316,11.3061,52.7373,-0.2875,253.3281,102.3594,11.3438,0.00000000,0.00000000,0.00000000,
4.078135,0.1594,-1.1183,-0.1562,0.3513,-0.3386,-0.2383,0.1366,-0.2092,0.9316,14.5603,51.9204,-1.1258,253.3281,102.3594,11.3438,0.00000000,0.00000000,0.00000000,
4.081782,0.1594,-1.1183,-0.1562,0.7091,-1.0977,-0.0806,0.1366,-0.2092,0.9316,14.5603,51.9204,-1.1258,253.3281,102.3594,11.3438,0.00000000,0.00000000,0.00000000,
4.084886,0.1594,-1.1183,-0.1562,1.2288,-1.0302,-0.1953,0.1366,-0.2092,0.9316,14.5603,51.9204,-1.1258,253.3281,102.3594,11.3438,0.00000000,0.00000000,0.00000000,
4.102280,0.1594,-1.1183,-0.1562,1.2288,-1.0302,-0.1953,0.1366,-0.2092,0.9316,14.5603,51.9204,-1.1258,252.7969,102.2812,10.8750,0.00000000,0.00000000,0.00000000,
4.105513,0.1667,-1.2276,-0.1253,1.2288,-1.0302,-0.1953,0.1366,-0.2092,0.9316,14.5603,51.9204,-1.1258,252.7969,102.2812,10.8750,0.00000000,0.00000000,0.00000000,
4.111505,0.1667,-1.2276,-0.1253,1.2288,-1.0302,-0.1953,0.5318,-0.3303,1.6250,14.5603,51.9204,-1.1258,252.7969,102.2812,10.8750,0.00000000,0.00000000,0.00000000,
4.136135,0.1667,-1.2276,-0.1253,1.2288,-1.0302,-0.1953,0.5318,-0.3303,1.6250,14.5603,51.9204,-1.1258,252.3438,102.2969,10.5469,0.00000000,0.00000000,0.00000000,
4.140473,0.1667,-1.2276,-0.1253,1.2288,-1.0302,-0.1953,0.5318,-0.3303,1.6250,19.7232,48.9575,-3.1627,252.3438,102.2969,10.5469,0.00000000,0.00000000,0.00000000,
4.142720,0.1667,-1.2276,-0.1253,2.0379,-2.1136,-0.4989,0.5318,-0.3303,1.6250,19.7232,48.9575,-3.1627,252.3438,102.2969,10.5469,0.00000000,0.00000000,0.00000000,
4.171498,0.2936,-1.5725,-0.1838,2.0379,-2.1136,-0.4989,0.5318,-0.3303,1.6250,19.7232,48.9575,-3.1627,252.3438,102.2969,10.5469,0.00000000,0.00000000,0.00000000,
4.177672,0.2936,-1.5725,-0.1838,2.0379,-2.1136,-0.4989,0.5318,-0.3303,1.6250,19.7232,48.9575,-3.1627,251.7969,102.2812,10.1094,0.00000000,0.00000000,0.00000000,
4.190412,0.2936,-1.5725,-0.1838,2.0379,-2.1136,-0.4989,1.1103,-0.2101,2.6192,19.7232,48.9575,-3.1627,251.7969,102.2812,10.1094,0.00000000,0.00000000,0.00000000,
4.198756,0.2936,-1.5725,-0.1838,2.0379,-2.1136,-0.4989,1.1103,-0.2101,2.6192,30.2061,43.1788,-7.9401,251.7969,102.2812,10.1094,0.00000000,0.00000000,0.00000000,
4.202590,0.2936,-1.5725,-0.1838,3.3510,-3.6687,-0.0211,1.1103,-0.2101,2.6192,30.2061,43.1788,-7.9401,251.7969,102.2812,10.1094,0.00000000,0.00000000,0.00000000,
4.205544,0.2936,-1.5725,-0.1838,4.5787,-3.8257,-0.5568,1.1103,-0.2101,2.6192,30.2061,43.1788,-7.9401,251.7969,102.2812,10.1094,0.00000000,0.00000000,0.00000000,
4.219404,0.2936,-1.5725,-0.1838,4.5787,-3.8257,-0.5568,1.1103,-0.2101,2.6192,30.2061,43.1788,-7.9401,251.0938,102.1094,9.5312,0.00000000,0.00000000,0.00000000,
4.231310,0.5642,-2.0762,-0.2587,4.5787,-3.8257,-0.5568,1.1103,-0.2101,2.6192,30.2061,43.1788,-7.9401,251.0938,102.1094,9.5312,0.00000000,0.00000000,0.00000000,
4.234881,0.5642,-2.0762,-0.2587,4.5787,-3.8257,-0.5568,1.2302,-0.3240,4.9698,30.2061,43.1788,-7.9401,251.0938,102.1094,9.5312,0.00000000,0.00000000,0.00000000,
4.260378,0.5642,-2.0762,-0.2587,9.7917,-9.5146,-3.1903,1.2302,-0.3240,4.9698,30.2061,43.1788,-7.9401,251.0938,102.1094,9.5312,0.00000000,0.00000000,0.00000000,
4.266950,0.5642,-2.0762,-0.2587,9.7917,-9.5146,-3.1903,1.2302,-0.3240,4.9698,30.2061,43.1788,-7.9401,250.0469,101.5625,8.6250,0.00000000,0.00000000,0.00000000,
4.281141,0.5642,-2.0762,-0.2587,9.7917,-9.5146,-3.1903,1.2302,-0.3240,4.9698,42.5198,28.6100,-11.8070,250.0469,101.5625,8.6250,0.00000000,0.00000000,0.00000000,
4.315709,0.7082,-1.0627,-0.4504,9.7917,-9.5146,-3.1903,1.2302,-0.3240,4.9698,42.5198,28.6100,-11.8070,250.0469,101.5625,8.6250,0.00000000,0.00000000,0.00000000,
4.319539,0.7082,-1.0627,-0.4504,9.7917,-9.5146,-3.1903,1.2302,-0.3240,4.9698,42.5198,28.6100,-11.8070,248.3281,100.5000,7.2031,0.00000000,0.00000000,0.00000000,
4.322506,0.7082,-1.0627,-0.4504,9.7917,-9.5146,-3.1903,1.0749,0.0605,4.6920,42.5198,28.6100,-11.8070,248.3281,100.5000,7.2031,0.00000000,0.00000000,0.00000000,
4.325612,0.7082,-1.0627,-0.4504,9.7227,-12.6716,-4.1735,1.0749,0.0605,4.6920,42.5198,28.6100,-11.8070,248.3281,100.5000,7.2031,0.00000000,0.00000000,0.00000000,
4.328050,0.7082,-1.0627,-0.4504,10.6962,-13.5091,-4.3632,1.0749,0.0605,4.6920,42.5198,28.6100,-11.8070,248.3281,100.5000,7.2031,0.00000000,0.00000000,0.00000000,
4.345885,0.7082,-1.0627,-0.4504,10.6962,-13.5091,-4.3632,1.0749,0.0605,4.6920,47.1022,16.0905,-15.9789,248.3281,100.5000,7.2031,0.00000000,0.00000000,0.00000000,
4.349274,0.7082,-1.0627,-0.4504,10.6962,-13.5091,-4.3632,1.0749,0.0605,4.6920,47.1022,16.0905,-15.9789,245.6406,98.9531,5.0625,0.00000000,0.00000000,0.00000000,
4.371229,0.8284,-0.2334,-0.0240,10.6962,-13.5091,-4.3632,1.0749,0.0605,4.6920,47.1022,16.0905,-15.9789,245.6406,98.9531,5.0625,0.00000000,0.00000000,0.00000000,
4.381613,0.8284,-0.2334,-0.0240,15.6743,4.7133,-3.6229,1.0749,0.0605,4.6920,47.1022,16.0905,-15.9789,245.6406,98.9531,5.0625,0.00000000,0.00000000,0.00000000,
4.398650,0.8284,-0.2334,-0.0240,15.6743,4.7133,-3.6229,1.0749,0.0605,4.6920,47.1022,16.0905,-15.9789,241.7812,96.9375,1.9219,0.00000000,0.00000000,0.00000000,
4.402893,0.8284,-0.2334,-0.0240,15.6743,4.7133,-3.6229,0.3415,-0.1160,-1.8097,47.1022,16.0905,-15.9789,241.7812,96.9375,1.9219,0.00000000,0.00000000,0.00000000,
4.406964,0.8284,-0.2334,-0.0240,15.6743,4.7133,-3.6229,0.3415,-0.1160,-1.8097,44.3039,24.0034,-16.5701,241.7812,96.9375,1.9219,0.00000000,0.00000000,0.00000000,
4.428304,0.8284,-0.2334,-0.0240,15.6743,4.7133,-3.6229,0.3415,-0.1160,-1.8097,44.3039,24.0034,-16.5701,236.7500,95.6719,-2.2656,0.00000000,0.00000000,0.00000000,
4.434876,0.8284,-0.2334,-0.0240,15.6743,4.7133,-3.6229,-0.0400,0.9415,-4.4499,44.3039,24.0034,-16.5701,236.7500,95.6719,-2.2656,0.00000000,0.00000000,0.00000000,
4.438358,0.4454,-0.5774,-0.3052,15.6743,4.7133,-3.6229,-0.0400,0.9415,-4.4499,44.3039,24.0034,-16.5701,236.7500,95.6719,-2.2656,0.00000000,0.00000000,0.00000000,
4.445976,0.4454,-0.5774,-0.3052,12.9826,5.2801,-1.6831,-0.0400,0.9415,-4.4499,44.3039,24.0034,-16.5701,236.7500,95.6719,-2.2656,0.00000000,0.00000000,0.00000000,
4.450421,0.4454,-0.5774,-0.3052,11.2693,5.9654,-1.4757,-0.0400,0.9415,-4.4499,44.3039,24.0034,-16.5701,236.7500,95.6719,-2.2656,0.00000000,0.00000000,0.00000000,
4.469767,0.4454,-0.5774,-0.3052,11.2693,5.9654,-1.4757,-0.0400,0.9415,-4.4499,44.3039,24.0034,-16.5701,235.1875,98.0469,-7.5000,0.00000000,0.00000000,0.00000000,
4.478599,0.4454,-0.5774,-0.3052,11.2693,5.9654,-1.4757,-0.0400,0.9415,-4.4499,38.6904,32.9877,-18.1989,235.1875,98.0469,-7.5000,0.00000000,0.00000000,0.00000000,
4.504616,0.4454,-0.5774,-0.3052,5.0858,3.0261,-3.6203,-0.0400,0.9415,-4.4499,38.6904,32.9877,-18.1989,235.1875,98.0469,-7.5000,0.00000000,0.00000000,0.00000000,
4.510627,0.4091,-1.0763,-0.2748,5.0858,3.0261,-3.6203,-0.0400,0.9415,-4.4499,38.6904,32.9877,-18.1989,235.1875,98.0469,-7.5000,0.00000000,0.00000000,0.00000000,
4.514200,0.4091,-1.0763,-0.2748,5.0858,3.0261,-3.6203,-0.0400,0.9415,-4.4499,38.6904,32.9877,-18.1989,229.8594,74.8750,-15.1250,0.00000000,0.00000000,0.00000000,
4.517361,0.4091,-1.0763,-0.2748,5.0858,3.0261,-3.6203,-0.7423,0.2039,-5.4534,38.6904,32.9877,-18.1989,229.8594,74.8750,-15.1250,0.00000000,0.00000000,0.00000000,
4.538158,0.4091,-1.0763,-0.2748,5.0858,3.0261,-3.6203,-0.7423,0.2039,-5.4534,23.8262,46.3231,-19.0775,229.8594,74.8750,-15.1250,0.00000000,0.00000000,0.00000000,
4.553475,0.4091,-1.0763,-0.2748,5.0858,3.0261,-3.6203,-0.7423,0.2039,-5.4534,23.8262,46.3231,-19.0775,208.7344,49.7344,-39.7656,0.00000000,0.00000000,0.00000000,
4.572150,0.4091,-1.0763,-0.2748,3.3296,-1.6912,-2.6656,-0.7423,0.2039,-5.4534,23.8262,46.3231,-19.0775,208.7344,49.7344,-39.7656,0.00000000,0.00000000,0.00000000,
4.577201,0.4091,-1.0763,-0.2748,1.1036,-2.1103,-2.1111,-0.7423,0.2039,-5.4534,23.8262,46.3231,-19.0775,208.7344,49.7344,-39.7656,0.00000000,0.00000000,0.00000000,
4.580181,0.4294,-1.9385,-0.2361,1.1036,-2.1103,-2.1111,-0.7423,0.2039,-5.4534,23.8262,46.3231,-19.0775,208.7344,49.7344,-39.7656,0.00000000,0.00000000,0.00000000,
4.593199,0.4294,-1.9385,-0.2361,1.1036,-2.1103,-2.1111,-1.5456,0.5651,-5.4868,23.8262,46.3231,-19.0775,208.7344,49.7344,-39.7656,0.00000000,0.00000000,0.00000000,
4.597292,0.4294,-1.9385,-0.2361,1.1036,-2.1103,-2.1111,-1.5456,0.5651,-5.4868,23.8262,46.3231,-19.0775,199.9531,40.1250,-49.0625,0.00000000,0.00000000,0.00000000,
4.599809,0.4294,-1.9385,-0.2361,1.1036,-2.1103,-2.1111,-1.5456,0.5651,-5.4868,4.3658,51.6718,-14.6566,199.9531,40.1250,-49.0625,0.00000000,0.00000000,0.00000000,
4.625996,0.4294,-1.9385,-0.2361,-0.3373,-10.6807,-1.2901,-1.5456,0.5651,-5.4868,4.3658,51.6718,-14.6566,199.9531,40.1250,-49.0625,0.00000000,0.00000000,0.00000000,
4.648577,-1.5936,-2.5762,-0.4548,-0.3373,-10.6807,-1.2901,-1.5456,0.5651,-5.4868,4.3658,51.6718,-14.6566,199.9531,40.1250,-49.0625,0.00000000,0.00000000,0.00000000,
4.653059,-1.5936,-2.5762,-0.4548,-0.3373,-10.6807,-1.2901,-1.6314,1.9508,-3.9846,4.3658,51.6718,-14.6566,199.9531,40.1250,-49.0625,0.00000000,0.00000000,0.00000000,
4.657132,-1.5936,-2.5762,-0.4548,-0.3373,-10.6807,-1.2901,-1.6314,1.9508,-3.9846,4.3658,51.6718,-14.6566,195.7031,40.0938,-48.7031,0.00000000,0.00000000,0.00000000,
4.677741,-1.5936,-2.5762,-0.4548,-0.3373,-10.6807,-1.2901,-1.6314,1.9508,-3.9846,-11.0204,51.0842,-8.4222,195.7031,40.0938,-48.7031,0.00000000,0.00000000,0.00000000,
4.682148,-1.5936,-2.5762,-0.4548,-0.3373,-10.6807,-1.2901,-1.6314,1.9508,-3.9846,-11.0204,51.0842,-8.4222,203.9531,50.1094,-38.8594,0.00000000,0.00000000,0.00000000,
4.703859,-1.5936,-2.5762,-0.4548,-17.7156,-18.5283,-3.0657,-1.6314,1.9508,-3.9846,-11.0204,51.0842,-8.4222,203.9531,50.1094,-38.8594,0.00000000,0.00000000,0.00000000,
4.706051,-1.5936,-2.5762,-0.4548,-18.1140,-18.7954,-2.9063,-1.6314,1.9508,-3.9846,-11.0204,51.0842,-8.4222,203.9531,50.1094,-38.8594,0.00000000,0.00000000,0.00000000,
4.707209,-2.2057,-1.9789,-0.0144,-18.1140,-18.7954,-2.9063,-1.6314,1.9508,-3.9846,-11.0204,51.0842,-8.4222,203.9531,50.1094,-38.8594,0.00000000,0.00000000,0.00000000,
4.716886,-2.2057,-1.9789,-0.0144,-18.1140,-18.7954,-2.9063,-0.2981,0.1841,0.4198,-11.0204,51.0842,-8.4222,203.9531,50.1094,-38.8594,0.00000000,0.00000000,0.00000000,
4.719404,-2.2057,-1.9789,-0.0144,-18.1140,-18.7954,-2.9063,-0.2981,0.1841,0.4198,-11.0204,51.0842,-8.4222,214.0000,60.1562,-29.0312,0.00000000,0.00000000,0.00000000,
4.736786,-2.2057,-1.9789,-0.0144,-18.1140,-18.7954,-2.9063,-0.2981,0.1841,0.4198,-12.6032,50.6094,-6.2593,214.0000,60.1562,-29.0312,0.00000000,0.00000000,0.00000000,
4.744676,-2.2057,-1.9789,-0.0144,-35.1912,-14.2976,1.8014,-0.2981,0.1841,0.4198,-12.6032,50.6094,-6.2593,214.0000,60.1562,-29.0312,0.00000000,0.00000000,0.00000000,
4.761939,-2.2057,-1.9789,-0.0144,-35.1912,-14.2976,1.8014,-0.2981,0.1841,0.4198,-12.6032,50.6094,-6.2593,222.9062,71.8125,-17.3750,0.00000000,0.00000000,0.00000000,
4.774619,0.3539,-1.2700,0.1321,-35.1912,-14.2976,1.8014,-0.2981,0.1841,0.4198,-12.6032,50.6094,-6.2593,222.9062,71.8125,-17.3750,0.00000000,0.00000000,0.00000000,
4.794182,0.3539,-1.2700,0.1321,-35.1912,-14.2976,1.8014,0.2366,0.5103,3.1510,-12.6032,50.6094,-6.2593,222.9062,71.8125,-17.3750,0.00000000,0.00000000,0.00000000,
4.797870,0.3539,-1.2700,0.1321,-35.1912,-14.2976,1.8014,0.2366,0.5103,3.1510,-4.4009,51.9442,-7.0065,222.9062,71.8125,-17.3750,0.00000000,0.00000000,0.00000000,
4.803797,0.3539,-1.2700,0.1321,2.3690,-0.0393,1.9505,0.2366,0.5103,3.1510,-4.4009,51.9442,-7.0065,222.9062,71.8125,-17.3750,0.00000000,0.00000000,0.00000000,
4.807236,0.3539,-1.2700,0.1321,2.3690,-0.0393,1.9505,0.2366,0.5103,3.1510,-4.4009,51.9442,-7.0065,231.9531,84.5000,-4.5625,0.00000000,0.00000000,0.00000000,
4.809489,0.3539,-1.2700,0.1321,3.4508,0.3618,1.9240,0.2366,0.5103,3.1510,-4.4009,51.9442,-7.0065,231.9531,84.5000,-4.5625,0.00000000,0.00000000,0.00000000,
4.835690,0.3539,-1.2700,0.1321,3.4508,0.3618,1.9240,-0.3033,0.1318,0.8889,-4.4009,51.9442,-7.0065,231.9531,84.5000,-4.5625,0.00000000,0.00000000,0.00000000,
4.839178,0.0192,-1.0407,-0.1243,3.4508,0.3618,1.9240,-0.3033,0.1318,0.8889,-4.4009,51.9442,-7.0065,231.9531,84.5000,-4.5625,0.00000000,0.00000000,0.00000000,
4.845958,0.0192,-1.0407,-0.1243,3.4508,0.3618,1.9240,-0.3033,0.1318,0.8889,-4.4009,51.9442,-7.0065,242.4219,98.9219,8.9219,0.00000000,0.00000000,0.00000000,
4.868643,0.0192,-1.0407,-0.1243,-4.2159,-2.6286,-0.5022,-0.3033,0.1318,0.8889,-4.4009,51.9442,-7.0065,242.4219,98.9219,8.9219,0.00000000,0.00000000,0.00000000,
4.879000,0.0192,-1.0407,-0.1243,-4.2159,-2.6286,-0.5022,-0.3033,0.1318,0.8889,0.4490,51.6215,-5.9199,242.4219,98.9219,8.9219,0.00000000,0.00000000,0.00000000,
4.896101,0.0192,-1.0407,-0.1243,-4.2159,-2.6286,-0.5022,-0.3033,0.1318,0.8889,0.4490,51.6215,-5.9199,252.4688,110.2500,19.8750,0.00000000,0.00000000,0.00000000,
4.906958,0.2151,-0.9680,-0.1115,-4.2159,-2.6286,-0.5022,-0.3033,0.1318,0.8889,0.4490,51.6215,-5.9199,252.4688,110.2500,19.8750,0.00000000,0.00000000,0.00000000,
4.915132,0.2151,-0.9680,-0.1115,-4.2159,-2.6286,-0.5022,-0.3067,-0.2151,0.0979,0.4490,51.6215,-5.9199,252.4688,110.2500,19.8750,0.00000000,0.00000000,0.00000000,
4.926082,0.2151,-0.9680,-0.1115,-0.2475,-0.3708,0.2033,-0.3067,-0.2151,0.0979,0.4490,51.6215,-5.9199,252.4688,110.2500,19.8750,0.00000000,0.00000000,0.00000000,
4.929982,0.2151,-0.9680,-0.1115,-0.1569,-0.3669,0.3753,-0.3067,-0.2151,0.0979,0.4490,51.6215,-5.9199,252.4688,110.2500,19.8750,0.00000000,0.00000000,0.00000000,
4.933127,0.2151,-0.9680,-0.1115,-0.1569,-0.3669,0.3753,-0.3067,-0.2151,0.0979,0.4490,51.6215,-5.9199,265.4375,120.0469,29.5156,0.00000000,0.00000000,0.00000000,
4.938908,0.2151,-0.9680,-0.1115,-0.1569,-0.3669,0.3753,-0.3067,-0.2151,0.0979,1.0428,52.2315,-4.8470,265.4375,120.0469,29.5156,0.00000000,0.00000000,0.00000000,
4.965199,0.2274,-0.9663,-0.1736,-0.1569,-0.3669,0.3753,-0.3067,-0.2151,0.0979,1.0428,52.2315,-4.8470,265.4375,120.0469,29.5156,0.00000000,0.00000000,0.00000000,
4.969369,0.2274,-0.9663,-0.1736,-0.1569,-0.3669,0.3753,-0.3067,-0.2151,0.0979,1.0428,52.2315,-4.8470,270.5156,125.4531,34.7500,0.00000000,0.00000000,0.00000000,
4.987761,0.2274,-0.9663,-0.1736,-0.0348,-0.0590,-0.0807,-0.3067,-0.2151,0.0979,1.0428,52.2315,-4.8470,270.5156,125.4531,34.7500,0.00000000,0.00000000,0.00000000,
4.994215,0.2274,-0.9663,-0.1736,-0.0348,-0.0590,-0.0807,-0.2951,-0.2004,0.2281,1.0428,52.2315,-4.8470,270.5156,125.4531,34.7500,0.00000000,0.00000000,0.00000000,
4.997791,0.2274,-0.9663,-0.1736,-0.0348,-0.0590,-0.0807,-0.2951,-0.2004,0.2281,1.9033,51.2823,-4.9303,270.5156,125.4531,34.7500,0.00000000,0.00000000,0.00000000,
5.011185,0.2274,-0.9663,-0.1736,-0.0348,-0.0590,-0.0807,-0.2951,-0.2004,0.2281,1.9033,51.2823,-4.9303,263.7031,120.7500,30.0156,0.00000000,0.00000000,0.00000000,
5.035473,0.2274,-0.9663,-0.1736,-0.0348,-0.0590,-0.0807,-0.1774,-0.1468,0.3494,1.9033,51.2823,-4.9303,263.7031,120.7500,30.0156,0.00000000,0.00000000,0.00000000,
5.039942,0.1973,-0.9794,-0.2018,-0.0348,-0.0590,-0.0807,-0.1774,-0.1468,0.3494,1.9033,51.2823,-4.9303,263.7031,120.7500,30.0156,0.00000000,0.00000000,0.00000000,
5.047756,0.1973,-0.9794,-0.2018,0.0056,-0.0583,-0.1077,-0.1774,-0.1468,0.3494,1.9033,51.2823,-4.9303,263.7031,120.7500,30.0156,0.00000000,0.00000000,0.00000000,
5.051004,0.1973,-0.9794,-0.2018,0.1482,-0.0398,-0.0289,-0.1774,-0.1468,0.3494,1.9033,51.2823,-4.9303,263.7031,120.7500,30.0156,0.00000000,0.00000000,0.00000000,
5.054051,0.1973,-0.9794,-0.2018,0.1482,-0.0398,-0.0289,-0.1774,-0.1468,0.3494,1.9033,51.2823,-4.9303,252.4531,113.4219,22.8750,0.00000000,0.00000000,0.00000000,
5.080937,0.1973,-0.9794,-0.2018,0.1482,-0.0398,-0.0289,-0.1774,-0.1468,0.3494,3.2501,52.3848,-4.1595,252.4531,113.4219,22.8750,0.00000000,0.00000000,0.00000000,
5.097024,0.1973,-0.9794,-0.2018,0.1482,-0.0398,-0.0289,-0.1774,-0.1468,0.3494,3.2501,52.3848,-4.1595,245.0156,106.4844,15.7188,0.00000000,0.00000000,0.00000000,
5.110075,0.1973,-0.9794,-0.2018,0.2178,-0.1588,-0.3605,-0.1774,-0.1468,0.3494,3.2501,52.3848,-4.1595,245.0156,106.4844,15.7188,0.00000000,0.00000000,0.00000000,
5.117273,0.1973,-0.9794,-0.2018,0.2178,-0.1588,-0.3605,-0.0105,-0.2136,0.5986,3.2501,52.3848,-4.1595,245.0156,106.4844,15.7188,0.00000000,0.00000000,0.00000000,
5.121710,0.1968,-1.0357,-0.2147,0.2178,-0.1588,-0.3605,-0.0105,-0.2136,0.5986,3.2501,52.3848,-4.1595,245.0156,106.4844,15.7188,0.00000000,0.00000000,0.00000000,
5.137075,0.1968,-1.0357,-0.2147,0.2178,-0.1588,-0.3605,-0.0105,-0.2136,0.5986,3.2501,52.3848,-4.1595,243.7344,105.1406,14.0781,0.00000000,0.00000000,0.00000000,
5.142021,0.1968,-1.0357,-0.2147,0.2178,-0.1588,-0.3605,-0.0105,-0.2136,0.5986,4.6744,51.5610,-4.1445,243.7344,105.1406,14.0781,0.00000000,0.00000000,0.00000000,
5.169841,0.1968,-1.0357,-0.2147,0.3351,-0.5954,-0.2602,-0.0105,-0.2136,0.5986,4.6744,51.5610,-4.1445,243.7344,105.1406,14.0781,0.00000000,0.00000000,0.00000000,
5.176364,0.1968,-1.0357,-0.2147,0.7302,-0.5215,-0.3115,-0.0105,-0.2136,0.5986,4.6744,51.5610,-4.1445,243.7344,105.1406,14.0781,0.00000000,0.00000000,0.00000000,
5.180000,0.2487,-1.2475,-0.1997,0.7302,-0.5215,-0.3115,-0.0105,-0.2136,0.5986,4.6744,51.5610,-4.1445,243.7344,105.1406,14.0781,0.00000000,0.00000000,0.00000000,
5.183233,0.2487,-1.2475,-0.1997,0.7302,-0.5215,-0.3115,-0.0105,-0.2136,0.5986,4.6744,51.5610,-4.1445,245.6094,105.3438,14.1094,0.00000000,0.00000000,0.00000000,
5.196437,0.2487,-1.2475,-0.1997,0.7302,-0.5215,-0.3115,0.2461,-0.3727,1.1082,4.6744,51.5610,-4.1445,245.6094,105.3438,14.1094,0.00000000,0.00000000,0.00000000,
5.201234,0.2487,-1.2475,-0.1997,0.7302,-0.5215,-0.3115,0.2461,-0.3727,1.1082,9.0050,52.0906,-4.4820,245.6094,105.3438,14.1094,0.00000000,0.00000000,0.00000000,
5.219426,0.2487,-1.2475,-0.1997,0.7302,-0.5215,-0.3115,0.2461,-0.3727,1.1082,9.0050,52.0906,-4.4820,244.0000,105.3281,13.5781,0.00000000,0.00000000,0.00000000,
5.225183,0.2487,-1.2475,-0.1997,1.8691,-2.1562,-0.4590,0.2461,-0.3727,1.1082,9.0050,52.0906,-4.4820,244.0000,105.3281,13.5781,0.00000000,0.00000000,0.00000000,
5.238575,0.2487,-1.2475,-0.1997,1.8691,-2.1562,-0.4590,0.7503,-0.5708,2.3685,9.0050,52.0906,-4.4820,244.0000,105.3281,13.5781,0.00000000,0.00000000,0.00000000,
5.253465,0.4305,-1.5620,-0.1530,1.8691,-2.1562,-0.4590,0.7503,-0.5708,2.3685,9.0050,52.0906,-4.4820,244.0000,105.3281,13.5781,0.00000000,0.00000000,0.00000000,
5.260722,0.4305,-1.5620,-0.1530,1.8691,-2.1562,-0.4590,0.7503,-0.5708,2.3685,9.0050,52.0906,-4.4820,243.5312,105.2812,13.0469,0.00000000,0.00000000,0.00000000,
5.276686,0.4305,-1.5620,-0.1530,1.8691,-2.1562,-0.4590,0.7503,-0.5708,2.3685,15.3535,49.4251,-8.4811,243.5312,105.2812,13.0469,0.00000000,0.00000000,0.00000000,
5.289335,0.4305,-1.5620,-0.1530,3.8734,-4.3976,0.0674,0.7503,-0.5708,2.3685,15.3535,49.4251,-8.4811,243.5312,105.2812,13.0469,0.00000000,0.00000000,0.00000000,
5.292377,0.4305,-1.5620,-0.1530,5.2488,-4.4528,-0.4272,0.7503,-0.5708,2.3685,15.3535,49.4251,-8.4811,243.5312,105.2812,13.0469,0.00000000,0.00000000,0.00000000,
5.301721,0.4305,-1.5620,-0.1530,5.2488,-4.4528,-0.4272,0.7503,-0.5708,2.3685,15.3535,49.4251,-8.4811,240.8906,104.9688,12.3281,0.00000000,0.00000000,0.00000000,
5.320901,0.4305,-1.5620,-0.1530,5.2488,-4.4528,-0.4272,1.0741,-0.7802,4.7724,15.3535,49.4251,-8.4811,240.8906,104.9688,12.3281,0.00000000,0.00000000,0.00000000,
5.325269,0.8870,-2.1685,-0.2362,5.2488,-4.4528,-0.4272,1.0741,-0.7802,4.7724,15.3535,49.4251,-8.4811,240.8906,104.9688,12.3281,0.00000000,0.00000000,0.00000000,
5.338184,0.8870,-2.1685,-0.2362,5.2488,-4.4528,-0.4272,1.0741,-0.7802,4.7724,28.7867,41.2868,-11.6631,240.8906,104.9688,12.3281,0.00000000,0.00000000,0.00000000,
5.343945,0.8870,-2.1685,-0.2362,5.2488,-4.4528,-0.4272,1.0741,-0.7802,4.7724,28.7867,41.2868,-11.6631,239.5625,104.5469,11.4688,0.00000000,0.00000000,0.00000000,
5.352978,0.8870,-2.1685,-0.2362,13.2910,-10.7735,-2.8808,1.0741,-0.7802,4.7724,28.7867,41.2868,-11.6631,239.5625,104.5469,11.4688,0.00000000,0.00000000,0.00000000,
5.377796,0.7232,-0.9450,-0.4364,13.2910,-10.7735,-2.8808,1.0741,-0.7802,4.7724,28.7867,41.2868,-11.6631,239.5625,104.5469,11.4688,0.00000000,0.00000000,0.00000000,
5.386107,0.7232,-0.9450,-0.4364,13.2910,-10.7735,-2.8808,1.0741,-0.7802,4.7724,28.7867,41.2868,-11.6631,239.3594,103.8594,10.3906,0.00000000,0.00000000,0.00000000,
5.397058,0.7232,-0.9450,-0.4364,13.2910,-10.7735,-2.8808,0.5658,-0.4164,6.4804,28.7867,41.2868,-11.6631,239.3594,103.8594,10.3906,0.00000000,0.00000000,0.00000000,
5.400188,0.7232,-0.9450,-0.4364,13.2910,-10.7735,-2.8808,0.5658,-0.4164,6.4804,40.1136,25.7204,-12.3947,239.3594,103.8594,10.3906,0.00000000,0.00000000,0.00000000,
5.414010,0.7232,-0.9450,-0.4364,10.5872,-10.6360,-3.1919,0.5658,-0.4164,6.4804,40.1136,25.7204,-12.3947,239.3594,103.8594,10.3906,0.00000000,0.00000000,0.00000000,
5.417399,0.7232,-0.9450,-0.4364,11.3358,-11.2707,-3.4115,0.5658,-0.4164,6.4804,40.1136,25.7204,-12.3947,239.3594,103.8594,10.3906,0.00000000,0.00000000,0.00000000,
5.430285,0.7232,-0.9450,-0.4364,11.3358,-11.2707,-3.4115,0.5658,-0.4164,6.4804,40.1136,25.7204,-12.3947,236.0000,102.5312,8.5781,0.00000000,0.00000000,0.00000000,
5.437158,0.7232,-0.9450,-0.4364,11.3358,-11.2707,-3.4115,0.5046,-1.3553,-1.6469,40.1136,25.7204,-12.3947,236.0000,102.5312,8.5781,0.00000000,0.00000000,0.00000000,
5.452176,0.9669,0.1563,0.1574,11.3358,-11.2707,-3.4115,0.5046,-1.3553,-1.6469,40.1136,25.7204,-12.3947,236.0000,102.5312,8.5781,0.00000000,0.00000000,0.00000000,
5.470854,0.9669,0.1563,0.1574,15.8581,9.7524,-2.0968,0.5046,-1.3553,-1.6469,40.1136,25.7204,-12.3947,236.0000,102.5312,8.5781,0.00000000,0.00000000,0.00000000,
5.477685,0.9669,0.1563,0.1574,15.8581,9.7524,-2.0968,0.5046,-1.3553,-1.6469,40.1136,25.7204,-12.3947,233.2344,100.7344,6.1875,0.00000000,0.00000000,0.00000000,
5.480903,0.9669,0.1563,0.1574,15.8581,9.7524,-2.0968,0.5046,-1.3553,-1.6469,37.7515,26.5469,-15.3173,233.2344,100.7344,6.1875,0.00000000,0.00000000,0.00000000,
5.511967,0.9669,0.1563,0.1574,15.8581,9.7524,-2.0968,0.5046,-1.3553,-1.6469,37.7515,26.5469,-15.3173,229.0156,98.1094,2.4531,0.00000000,0.00000000,0.00000000,
5.523438,0.5095,-0.6655,-0.0553,15.8581,9.7524,-2.0968,0.5046,-1.3553,-1.6469,37.7515,26.5469,-15.3173,229.0156,98.1094,2.4531,0.00000000,0.00000000,0.00000000,
5.528221,0.5095,-0.6655,-0.0553,15.8581,9.7524,-2.0968,0.2480,0.5795,-5.8438,37.7515,26.5469,-15.3173,229.0156,98.1094,2.4531,0.00000000,0.00000000,0.00000000,
5.530969,0.5095,-0.6655,-0.0553,12.0169,7.2844,0.8262,0.2480,0.5795,-5.8438,37.7515,26.5469,-15.3173,229.0156,98.1094,2.4531,0.00000000,0.00000000,0.00000000,
5.533511,0.5095,-0.6655,-0.0553,9.7591,7.7349,0.8598,0.2480,0.5795,-5.8438,37.7515,26.5469,-15.3173,229.0156,98.1094,2.4531,0.00000000,0.00000000,0.00000000,
5.540225,0.5095,-0.6655,-0.0553,9.7591,7.7349,0.8598,0.2480,0.5795,-5.8438,27.4066,38.3038,-12.8052,229.0156,98.1094,2.4531,0.00000000,0.00000000,0.00000000,
5.552756,0.5095,-0.6655,-0.0553,9.7591,7.7349,0.8598,0.2480,0.5795,-5.8438,27.4066,38.3038,-12.8052,217.6875,96.8281,-3.5000,0.00000000,0.00000000,0.00000000,
5.579575,0.3598,-1.4769,-0.1448,9.7591,7.7349,0.8598,0.2480,0.5795,-5.8438,27.4066,38.3038,-12.8052,217.6875,96.8281,-3.5000,0.00000000,0.00000000,0.00000000,
5.589810,0.3598,-1.4769,-0.1448,2.7685,0.0418,-1.9493,0.2480,0.5795,-5.8438,27.4066,38.3038,-12.8052,217.6875,96.8281,-3.5000,0.00000000,0.00000000,0.00000000,
5.593391,0.3598,-1.4769,-0.1448,2.7685,0.0418,-1.9493,0.2480,0.5795,-5.8438,27.4066,38.3038,-12.8052,208.1094,102.3438,-11.9844,0.00000000,0.00000000,0.00000000,
5.597516,0.3598,-1.4769,-0.1448,2.7685,0.0418,-1.9493,0.2480,0.5795,-5.8438,14.2346,47.4033,-10.3741,208.1094,102.3438,-11.9844,0.00000000,0.00000000,0.00000000,
5.600682,0.3598,-1.4769,-0.1448,2.7685,0.0418,-1.9493,-0.2276,0.5734,-5.3639,14.2346,47.4033,-10.3741,208.1094,102.3438,-11.9844,0.00000000,0.00000000,0.00000000,
5.637175,0.3598,-1.4769,-0.1448,2.7685,0.0418,-1.9493,-0.2276,0.5734,-5.3639,14.2346,47.4033,-10.3741,193.3594,115.2031,-25.2031,0.00000000,0.00000000,0.00000000,
5.642714,0.3598,-1.4769,-0.1448,2.7685,0.0418,-1.9493,-0.8587,1.2216,-5.2190,14.2346,47.4033,-10.3741,193.3594,115.2031,-25.2031,0.00000000,0.00000000,0.00000000,
5.654268,0.0812,-2.0340,-0.2952,2.7685,0.0418,-1.9493,-0.8587,1.2216,-5.2190,14.2346,47.4033,-10.3741,193.3594,115.2031,-25.2031,0.00000000,0.00000000,0.00000000,
5.661899,0.0812,-2.0340,-0.2952,0.9269,-6.8600,-2.2288,-0.8587,1.2216,-5.2190,14.2346,47.4033,-10.3741,193.3594,115.2031,-25.2031,0.00000000,0.00000000,0.00000000,
5.667759,0.0812,-2.0340,-0.2952,-0.8453,-7.4919,-2.0623,-0.8587,1.2216,-5.2190,14.2346,47.4033,-10.3741,193.3594,115.2031,-25.2031,0.00000000,0.00000000,0.00000000,
5.679199,0.0812,-2.0340,-0.2952,-0.8453,-7.4919,-2.0623,-0.8587,1.2216,-5.2190,14.2346,47.4033,-10.3741,174.0625,48.0312,-41.9375,0.00000000,0.00000000,0.00000000,
5.684077,0.0812,-2.0340,-0.2952,-0.8453,-7.4919,-2.0623,-0.8587,1.2216,-5.2190,-0.4510,51.0224,-6.3426,174.0625,48.0312,-41.9375,0.00000000,0.00000000,0.00000000,
5.712305,0.0812,-2.0340,-0.2952,-6.0042,-12.5165,-2.9959,-0.8587,1.2216,-5.2190,-0.4510,51.0224,-6.3426,174.0625,48.0312,-41.9375,0.00000000,0.00000000,0.00000000,
5.718944,-1.1615,-2.0246,-0.3824,-6.0042,-12.5165,-2.9959,-0.8587,1.2216,-5.2190,-0.4510,51.0224,-6.3426,174.0625,48.0312,-41.9375,0.00000000,0.00000000,0.00000000,
5.722380,-1.1615,-2.0246,-0.3824,-6.0042,-12.5165,-2.9959,-0.9889,1.1603,-3.6292,-0.4510,51.0224,-6.3426,174.0625,48.0312,-41.9375,0.00000000,0.00000000,0.00000000,
5.725570,-1.1615,-2.0246,-0.3824,-6.0042,-12.5165,-2.9959,-0.9889,1.1603,-3.6292,-0.4510,51.0224,-6.3426,176.5781,46.5781,-42.7344,0.00000000,0.00000000,0.00000000,
5.740757,-1.1615,-2.0246,-0.3824,-6.0042,-12.5165,-2.9959,-0.9889,1.1603,-3.6292,-11.5839,50.2342,-2.0664,176.5781,46.5781,-42.7344,0.00000000,0.00000000,0.00000000,
5.760880,-1.1615,-2.0246,-0.3824,-6.0042,-12.5165,-2.9959,-0.9889,1.1603,-3.6292,-11.5839,50.2342,-2.0664,191.1406,59.8906,-29.2188,0.00000000,0.00000000,0.00000000,
5.771773,-1.1615,-2.0246,-0.3824,-18.6258,-12.3859,-3.9507,-0.9889,1.1603,-3.6292,-11.5839,50.2342,-2.0664,191.1406,59.8906,-29.2188,0.00000000,0.00000000,0.00000000,
5.775709,-1.1615,-2.0246,-0.3824,-18.6633,-12.5054,-3.6832,-0.9889,1.1603,-3.6292,-11.5839,50.2342,-2.0664,191.1406,59.8906,-29.2188,0.00000000,0.00000000,0.00000000,
5.780049,-1.6595,-1.6671,-0.0890,-18.6633,-12.5054,-3.6832,-0.9889,1.1603,-3.6292,-11.5839,50.2342,-2.0664,191.1406,59.8906,-29.2188,0.00000000,0.00000000,0.00000000,
5.797166,-1.6595,-1.6671,-0.0890,-18.6633,-12.5054,-3.6832,-0.9889,1.1603,-3.6292,-15.1725,50.4317,-1.0348,191.1406,59.8906,-29.2188,0.00000000,0.00000000,0.00000000,
5.800453,-1.6595,-1.6671,-0.0890,-18.6633,-12.5054,-3.6832,-0.4122,-0.2497,-0.9694,-15.1725,50.4317,-1.0348,191.1406,59.8906,-29.2188,0.00000000,0.00000000,0.00000000,
5.806261,-1.6595,-1.6671,-0.0890,-18.6633,-12.5054,-3.6832,-0.4122,-0.2497,-0.9694,-15.1725,50.4317,-1.0348,206.1406,72.4375,-16.4062,0.00000000,0.00000000,0.00000000,
5.830876,-1.6595,-1.6671,-0.0890,-23.2572,-8.7125,-0.6043,-0.4122,-0.2497,-0.9694,-15.1725,50.4317,-1.0348,206.1406,72.4375,-16.4062,0.00000000,0.00000000,0.00000000,
5.839320,-1.6595,-1.6671,-0.0890,-23.2572,-8.7125,-0.6043,-0.1286,1.0168,1.2562,-15.1725,50.4317,-1.0348,206.1406,72.4375,-16.4062,0.00000000,0.00000000,0.00000000,
5.843275,-1.6595,-1.6671,-0.0890,-23.2572,-8.7125,-0.6043,-0.1286,1.0168,1.2562,-15.1725,50.4317,-1.0348,219.4062,83.0000,-4.3594,0.00000000,0.00000000,0.00000000,
5.861494,0.8912,-0.9083,0.1904,-23.2572,-8.7125,-0.6043,-0.1286,1.0168,1.2562,-15.1725,50.4317,-1.0348,219.4062,83.0000,-4.3594,0.00000000,0.00000000,0.00000000,
5.877942,0.8912,-0.9083,0.1904,-23.2572,-8.7125,-0.6043,-0.1286,1.0168,1.2562,-10.8308,51.6007,0.1483,219.4062,83.0000,-4.3594,0.00000000,0.00000000,0.00000000,
5.886030,0.8912,-0.9083,0.1904,-23.2572,-8.7125,-0.6043,-0.1286,1.0168,1.2562,-10.8308,51.6007,0.1483,234.5000,80.2969,8.6562,0.00000000,0.00000000,0.00000000,
5.892740,0.8912,-0.9083,0.1904,3.9985,-0.8925,1.6411,-0.1286,1.0168,1.2562,-10.8308,51.6007,0.1483,234.5000,80.2969,8.6562,0.00000000,0.00000000,0.00000000,
5.896268,0.8912,-0.9083,0.1904,4.8040,-0.3515,1.4679,-0.1286,1.0168,1.2562,-10.8308,51.6007,0.1483,234.5000,80.2969,8.6562,0.00000000,0.00000000,0.00000000,
5.911577,0.1550,-1.2931,-0.1227,4.8040,-0.3515,1.4679,-0.1286,1.0168,1.2562,-10.8308,51.6007,0.1483,234.5000,80.2969,8.6562,0.00000000,0.00000000,0.00000000,
5.921319,0.1550,-1.2931,-0.1227,4.8040,-0.3515,1.4679,-0.5526,0.9740,2.6221,-10.8308,51.6007,0.1483,234.5000,80.2969,8.6562,0.00000000,0.00000000,0.00000000,
5.927260,0.1550,-1.2931,-0.1227,4.8040,-0.3515,1.4679,-0.5526,0.9740,2.6221,-10.8308,51.6007,0.1483,249.5625,69.5312,20.2344,0.00000000,0.00000000,0.00000000,
5.937527,0.1550,-1.2931,-0.1227,4.8040,-0.3515,1.4679,-0.5526,0.9740,2.6221,-2.7908,53.2569,0.7390,249.5625,69.5312,20.2344,0.00000000,0.00000000,0.00000000,
5.962572,0.1550,-1.2931,-0.1227,-2.9589,-4.2365,-0.2858,-0.5526,0.9740,2.6221,-2.7908,53.2569,0.7390,249.5625,69.5312,20.2344,0.00000000,0.00000000,0.00000000,
5.971195,0.1550,-1.2931,-0.1227,-2.9589,-4.2365,-0.2858,-0.5526,0.9740,2.6221,-2.7908,53.2569,0.7390,284.9531,61.3750,28.5312,0.00000000,0.00000000,0.00000000,
5.986316,0.1692,-1.0422,0.0342,-2.9589,-4.2365,-0.2858,-0.5526,0.9740,2.6221,-2.7908,53.2569,0.7390,284.9531,61.3750,28.5312,0.00000000,0.00000000,0.00000000,
5.997715,0.1692,-1.0422,0.0342,-2.9589,-4.2365,-0.2858,-0.5526,0.9740,2.6221,1.9339,53.4012,0.8704,284.9531,61.3750,28.5312,0.00000000,0.00000000,0.00000000,
6.003782,0.1692,-1.0422,0.0342,-2.9589,-4.2365,-0.2858,-0.1339,-0.1951,1.2535,1.9339,53.4012,0.8704,284.9531,61.3750,28.5312,0.00000000,0.00000000,0.00000000,
6.010981,0.1692,-1.0422,0.0342,-2.9589,-4.2365,-0.2858,-0.1339,-0.1951,1.2535,1.9339,53.4012,0.8704,306.4531,53.2500,36.7188,0.00000000,0.00000000,0.00000000,
6.013364,0.1692,-1.0422,0.0342,-1.4969,-1.7686,-0.5228,-0.1339,-0.1951,1.2535,1.9339,53.4012,0.8704,306.4531,53.2500,36.7188,0.00000000,0.00000000,0.00000000,
6.015299,0.1692,-1.0422,0.0342,-1.3544,-1.6996,-0.4871,-0.1339,-0.1951,1.2535,1.9339,53.4012,0.8704,306.4531,53.2500,36.7188,0.00000000,0.00000000,0.00000000,
6.044932,0.1692,-1.0422,0.0342,-1.3544,-1.6996,-0.4871,-0.1788,0.0276,0.3734,1.9339,53.4012,0.8704,306.4531,53.2500,36.7188,0.00000000,0.00000000,0.00000000,
6.052597,0.2893,-0.9845,-0.0389,-1.3544,-1.6996,-0.4871,-0.1788,0.0276,0.3734,1.9339,53.4012,0.8704,306.4531,53.2500,36.7188,0.00000000,0.00000000,0.00000000,
6.057707,0.2893,-0.9845,-0.0389,-1.3544,-1.6996,-0.4871,-0.1788,0.0276,0.3734,1.9339,53.4012,0.8704,315.0625,50.3594,39.6406,0.00000000,0.00000000,0.00000000,
6.071979,0.2893,-0.9845,-0.0389,0.0605,-0.1095,-0.0897,-0.1788,0.0276,0.3734,1.9339,53.4012,0.8704,315.0625,50.3594,39.6406,0.00000000,0.00000000,0.00000000,
6.077643,0.2893,-0.9845,-0.0389,0.0605,-0.1095,-0.0897,-0.1788,0.0276,0.3734,2.6831,52.9277,1.8865,315.0625,50.3594,39.6406,0.00000000,0.00000000,0.00000000,
6.094822,0.2893,-0.9845,-0.0389,0.0605,-0.1095,-0.0897,-0.1788,0.0276,0.3734,2.6831,52.9277,1.8865,313.8750,53.3125,36.6875,0.00000000,0.00000000,0.00000000,
6.111798,0.2280,-0.9890,-0.0221,0.0605,-0.1095,-0.0897,-0.1788,0.0276,0.3734,2.6831,52.9277,1.8865,313.8750,53.3125,36.6875,0.00000000,0.00000000,0.00000000,
6.125242,0.2280,-0.9890,-0.0221,0.0605,-0.1095,-0.0897,-0.1631,-0.0422,1.1550,2.6831,52.9277,1.8865,313.8750,53.3125,36.6875,0.00000000,0.00000000,0.00000000,
6.131808,0.2280,-0.9890,-0.0221,0.0313,-0.2360,-0.0159,-0.1631,-0.0422,1.1550,2.6831,52.9277,1.8865,313.8750,53.3125,36.6875,0.00000000,0.00000000,0.00000000,
6.135019,0.2280,-0.9890,-0.0221,0.5347,-0.1160,0.0667,-0.1631,-0.0422,1.1550,2.6831,52.9277,1.8865,313.8750,53.3125,36.6875,0.00000000,0.00000000,0.00000000,
6.137950,0.2280,-0.9890,-0.0221,0.5347,-0.1160,0.0667,-0.1631,-0.0422,1.1550,2.6831,52.9277,1.8865,316.3906,56.2188,33.7344,0.00000000,0.00000000,0.00000000,
6.140443,0.2280,-0.9890,-0.0221,0.5347,-0.1160,0.0667,-0.1631,-0.0422,1.1550,6.5616,52.3939,2.0822,316.3906,56.2188,33.7344,0.00000000,0.00000000,0.00000000,
6.179915,0.2280,-0.9890,-0.0221,0.5347,-0.1160,0.0667,-0.1631,-0.0422,1.1550,6.5616,52.3939,2.0822,315.7344,62.3750,27.4844,0.00000000,0.00000000,0.00000000,
6.186698,0.1497,-0.9842,-0.0619,0.5347,-0.1160,0.0667,-0.1631,-0.0422,1.1550,6.5616,52.3939,2.0822,315.7344,62.3750,27.4844,0.00000000,0.00000000,0.00000000,
6.192259,0.1497,-0.9842,-0.0619,0.4401,-0.0847,-0.2072,-0.1631,-0.0422,1.1550,6.5616,52.3939,2.0822,315.7344,62.3750,27.4844,0.00000000,0.00000000,0.00000000,
6.199071,0.1497,-0.9842,-0.0619,0.4401,-0.0847,-0.2072,-0.1631,-0.0422,1.1550,10.1701,51.1726,2.1092,315.7344,62.3750,27.4844,0.00000000,0.00000000,0.00000000,
6.210480,0.1497,-0.9842,-0.0619,0.4401,-0.0847,-0.2072,-0.1585,-0.2062,1.1705,10.1701,51.1726,2.1092,315.7344,62.3750,27.4844,0.00000000,0.00000000,0.00000000,
6.219745,0.1497,-0.9842,-0.0619,0.4401,-0.0847,-0.2072,-0.1585,-0.2062,1.1705,10.1701,51.1726,2.1092,308.0781,68.3906,21.5469,0.00000000,0.00000000,0.00000000,
6.246118,0.1086,-1.0091,-0.0583,0.4401,-0.0847,-0.2072,-0.1585,-0.2062,1.1705,10.1701,51.1726,2.1092,308.0781,68.3906,21.5469,0.00000000,0.00000000,0.00000000,
6.250092,0.1086,-1.0091,-0.0583,0.4401,-0.0847,-0.2072,-0.1476,-0.2847,0.6195,10.1701,51.1726,2.1092,308.0781,68.3906,21.5469,0.00000000,0.00000000,0.00000000,
6.252746,0.1086,-1.0091,-0.0583,0.1328,-0.0723,-0.2311,-0.1476,-0.2847,0.6195,10.1701,51.1726,2.1092,308.0781,68.3906,21.5469,0.00000000,0.00000000,0.00000000,
6.255676,0.1086,-1.0091,-0.0583,0.3502,-0.0492,-0.1534,-0.1476,-0.2847,0.6195,10.1701,51.1726,2.1092,308.0781,68.3906,21.5469,0.00000000,0.00000000,0.00000000,
6.262646,0.1086,-1.0091,-0.0583,0.3502,-0.0492,-0.1534,-0.1476,-0.2847,0.6195,10.1701,51.1726,2.1092,301.2812,71.4531,18.5156,0.00000000,0.00000000,0.00000000,
6.278365,0.1086,-1.0091,-0.0583,0.3502,-0.0492,-0.1534,-0.1476,-0.2847,0.6195,13.2365,51.1485,2.7276,301.2812,71.4531,18.5156,0.00000000,0.00000000,0.00000000,
6.302378,0.1086,-1.0091,-0.0583,0.3502,-0.0492,-0.1534,-0.1476,-0.2847,0.6195,13.2365,51.1485,2.7276,298.5625,72.2188,17.7656,0.00000000,0.00000000,0.00000000,
6.313047,0.1086,-1.0091,-0.0583,0.2101,-0.1966,0.0246,-0.1476,-0.2847,0.6195,13.2365,51.1485,2.7276,298.5625,72.2188,17.7656,0.00000000,0.00000000,0.00000000,
6.316613,0.1232,-1.1252,-0.0599,0.2101,-0.1966,0.0246,-0.1476,-0.2847,0.6195,13.2365,51.1485,2.7276,298.5625,72.2188,17.7656,0.00000000,0.00000000,0.00000000,
6.326425,0.1232,-1.1252,-0.0599,0.2101,-0.1966,0.0246,-0.1819,-0.3348,0.7134,13.2365,51.1485,2.7276,298.5625,72.2188,17.7656,0.00000000,0.00000000,0.00000000,
6.337952,0.1232,-1.1252,-0.0599,0.2101,-0.1966,0.0246,-0.1819,-0.3348,0.7134,15.0930,49.4228,3.0752,298.5625,72.2188,17.7656,0.00000000,0.00000000,0.00000000,
6.344989,0.1232,-1.1252,-0.0599,0.2101,-0.1966,0.0246,-0.1819,-0.3348,0.7134,15.0930,49.4228,3.0752,296.8906,73.1250,16.8750,0.00000000,0.00000000,0.00000000,
6.373954,0.1232,-1.1252,-0.0599,0.8347,-1.4882,0.1148,-0.1819,-0.3348,0.7134,15.0930,49.4228,3.0752,296.8906,73.1250,16.8750,0.00000000,0.00000000,0.00000000,
6.379983,0.1232,-1.1252,-0.0599,1.3749,-1.4593,0.1787,-0.1819,-0.3348,0.7134,15.0930,49.4228,3.0752,296.8906,73.1250,16.8750,0.00000000,0.00000000,0.00000000,
6.383547,0.1312,-1.2355,-0.0369,1.3749,-1.4593,0.1787,-0.1819,-0.3348,0.7134,15.0930,49.4228,3.0752,296.8906,73.1250,16.8750,0.00000000,0.00000000,0.00000000,
6.390954,0.1312,-1.2355,-0.0369,1.3749,-1.4593,0.1787,-0.1819,-0.3348,0.7134,15.0930,49.4228,3.0752,295.7812,75.5469,14.4531,0.00000000,0.00000000,0.00000000,
6.398285,0.1312,-1.2355,-0.0369,1.3749,-1.4593,0.1787,-0.1819,-0.3348,0.7134,19.5975,47.3755,2.3568,295.7812,75.5469,14.4531,0.00000000,0.00000000,0.00000000,
6.406364,0.1312,-1.2355,-0.0369,1.3749,-1.4593,0.1787,-0.1620,-0.4113,1.4215,19.5975,47.3755,2.3568,295.7812,75.5469,14.4531,0.00000000,0.00000000,0.00000000,
6.427570,0.1312,-1.2355,-0.0369,1.3749,-1.4593,0.1787,-0.1620,-0.4113,1.4215,19.5975,47.3755,2.3568,291.8125,101.3594,11.3594,0.00000000,0.00000000,0.00000000,
6.435493,0.1312,-1.2355,-0.0369,2.1274,-2.3627,0.3926,-0.1620,-0.4113,1.4215,19.5975,47.3755,2.3568,291.8125,101.3594,11.3594,0.00000000,0.00000000,0.00000000,
6.447172,0.1312,-1.2355,-0.0369,2.1274,-2.3627,0.3926,-0.0523,-0.5813,2.0321,19.5975,47.3755,2.3568,291.8125,101.3594,11.3594,0.00000000,0.00000000,0.00000000,
6.450755,0.1463,-1.2682,0.0856,2.1274,-2.3627,0.3926,-0.0523,-0.5813,2.0321,19.5975,47.3755,2.3568,291.8125,101.3594,11.3594,0.00000000,0.00000000,0.00000000,
6.469203,0.1463,-1.2682,0.0856,2.1274,-2.3627,0.3926,-0.0523,-0.5813,2.0321,19.5975,47.3755,2.3568,287.6875,98.6875,8.6562,0.00000000,0.00000000,0.00000000,
6.477890,0.1463,-1.2682,0.0856,2.1274,-2.3627,0.3926,-0.0523,-0.5813,2.0321,26.0814,45.7772,1.4436,287.6875,98.6875,8.6562,0.00000000,0.00000000,0.00000000,
6.494728,0.1463,-1.2682,0.0856,2.6500,-2.2343,0.9035,-0.0523,-0.5813,2.0321,26.0814,45.7772,1.4436,287.6875,98.6875,8.6562,0.00000000,0.00000000,0.00000000,
6.498765,0.1463,-1.2682,0.0856,3.5609,-2.4020,0.8365,-0.0523,-0.5813,2.0321,26.0814,45.7772,1.4436,287.6875,98.6875,8.6562,0.00000000,0.00000000,0.00000000,
6.512264,0.1463,-1.2682,0.0856,3.5609,-2.4020,0.8365,-0.0523,-0.5813,2.0321,26.0814,45.7772,1.4436,285.5938,96.9844,6.8906,0.00000000,0.00000000,0.00000000,
6.516723,0.3054,-1.7696,0.1672,3.5609,-2.4020,0.8365,-0.0523,-0.5813,2.0321,26.0814,45.7772,1.4436,285.5938,96.9844,6.8906,0.00000000,0.00000000,0.00000000,
6.527283,0.3054,-1.7696,0.1672,3.5609,-2.4020,0.8365,-0.1321,-0.3941,2.8635,26.0814,45.7772,1.4436,285.5938,96.9844,6.8906,0.00000000,0.00000000,0.00000000,
6.537548,0.3054,-1.7696,0.1672,3.5609,-2.4020,0.8365,-0.1321,-0.3941,2.8635,33.9660,38.3113,1.2648,285.5938,96.9844,6.8906,0.00000000,0.00000000,0.00000000,
6.552241,0.3054,-1.7696,0.1672,3.5609,-2.4020,0.8365,-0.1321,-0.3941,2.8635,33.9660,38.3113,1.2648,283.0938,95.7969,5.5781,0.00000000,0.00000000,0.00000000,
6.555627,0.3054,-1.7696,0.1672,8.4108,-9.1923,4.3718,-0.1321,-0.3941,2.8635,33.9660,38.3113,1.2648,283.0938,95.7969,5.5781,0.00000000,0.00000000,0.00000000,
6.570666,0.3054,-1.7696,0.1672,8.4108,-9.1923,4.3718,-0.1815,0.1588,4.2944,33.9660,38.3113,1.2648,283.0938,95.7969,5.5781,0.00000000,0.00000000,0.00000000,
6.587055,-0.2564,-0.4235,-0.7222,8.4108,-9.1923,4.3718,-0.1815,0.1588,4.2944,33.9660,38.3113,1.2648,283.0938,95.7969,5.5781,0.00000000,0.00000000,0.00000000,
6.593913,-0.2564,-0.4235,-0.7222,8.4108,-9.1923,4.3718,-0.1815,0.1588,4.2944,33.9660,38.3113,1.2648,280.5781,94.5938,4.0938,0.00000000,0.00000000,0.00000000,
6.596985,-0.2564,-0.4235,-0.7222,8.4108,-9.1923,4.3718,-0.1815,0.1588,4.2944,40.9345,29.0310,-0.4812,280.5781,94.5938,4.0938,0.00000000,0.00000000,0.00000000,
6.615603,-0.2564,-0.4235,-0.7222,1.8921,0.4850,-5.0218,-0.1815,0.1588,4.2944,40.9345,29.0310,-0.4812,280.5781,94.5938,4.0938,0.00000000,0.00000000,0.00000000,
6.620171,-0.2564,-0.4235,-0.7222,2.1467,0.3338,-5.6084,-0.1815,0.1588,4.2944,40.9345,29.0310,-0.4812,280.5781,94.5938,4.0938,0.00000000,0.00000000,0.00000000,
6.636327,-0.2564,-0.4235,-0.7222,2.1467,0.3338,-5.6084,-0.1815,0.1588,4.2944,40.9345,29.0310,-0.4812,277.2344,93.2969,2.1250,0.00000000,0.00000000,0.00000000,
6.656080,0.9041,-0.1400,0.3084,2.1467,0.3338,-5.6084,-0.1815,0.1588,4.2944,40.9345,29.0310,-0.4812,277.2344,93.2969,2.1250,0.00000000,0.00000000,0.00000000,
6.662269,0.9041,-0.1400,0.3084,2.1467,0.3338,-5.6084,0.7001,-3.2880,-2.1036,40.9345,29.0310,-0.4812,277.2344,93.2969,2.1250,0.00000000,0.00000000,0.00000000,
6.675424,0.9041,-0.1400,0.3084,9.6338,7.5674,-2.6463,0.7001,-3.2880,-2.1036,40.9345,29.0310,-0.4812,277.2344,93.2969,2.1250,0.00000000,0.00000000,0.00000000,
6.679466,0.9041,-0.1400,0.3084,9.6338,7.5674,-2.6463,0.7001,-3.2880,-2.1036,37.0515,33.8437,-12.0185,277.2344,93.2969,2.1250,0.00000000,0.00000000,0.00000000,
6.682012,0.9041,-0.1400,0.3084,9.6338,7.5674,-2.6463,0.7001,-3.2880,-2.1036,37.0515,33.8437,-12.0185,272.3281,93.1406,-1.1719,0.00000000,0.00000000,0.00000000,
6.715818,0.5455,-0.5265,0.2404,9.6338,7.5674,-2.6463,0.7001,-3.2880,-2.1036,37.0515,33.8437,-12.0185,272.3281,93.1406,-1.1719,0.00000000,0.00000000,0.00000000,
6.721883,0.5455,-0.5265,0.2404,9.6338,7.5674,-2.6463,0.7001,-3.2880,-2.1036,37.0515,33.8437,-12.0185,265.6562,96.3906,-5.5781,0.00000000,0.00000000,0.00000000,
6.728701,0.5455,-0.5265,0.2404,9.6338,7.5674,-2.6463,0.4706,-0.5699,-3.1694,37.0515,33.8437,-12.0185,265.6562,96.3906,-5.5781,0.00000000,0.00000000,0.00000000,
6.737355,0.5455,-0.5265,0.2404,10.4427,7.8529,3.0657,0.4706,-0.5699,-3.1694,37.0515,33.8437,-12.0185,265.6562,96.3906,-5.5781,0.00000000,0.00000000,0.00000000,
6.741484,0.5455,-0.5265,0.2404,9.0928,8.0018,3.0550,0.4706,-0.5699,-3.1694,37.0515,33.8437,-12.0185,265.6562,96.3906,-5.5781,0.00000000,0.00000000,0.00000000,
6.744745,0.5455,-0.5265,0.2404,9.0928,8.0018,3.0550,0.4706,-0.5699,-3.1694,29.6216,40.3933,-15.0723,265.6562,96.3906,-5.5781,0.00000000,0.00000000,0.00000000,
6.761527,0.5455,-0.5265,0.2404,9.0928,8.0018,3.0550,0.4706,-0.5699,-3.1694,29.6216,40.3933,-15.0723,259.7188,100.8594,-10.4375,0.00000000,0.00000000,0.00000000,
6.769589,0.5455,-0.5265,0.2404,9.0928,8.0018,3.0550,-0.2487,1.0992,-4.1417,29.6216,40.3933,-15.0723,259.7188,100.8594,-10.4375,0.00000000,0.00000000,0.00000000,
6.775323,0.2034,-1.3007,-0.0300,9.0928,8.0018,3.0550,-0.2487,1.0992,-4.1417,29.6216,40.3933,-15.0723,259.7188,100.8594,-10.4375,0.00000000,0.00000000,0.00000000,
6.796049,0.2034,-1.3007,-0.0300,3.2820,0.0169,-0.2467,-0.2487,1.0992,-4.1417,29.6216,40.3933,-15.0723,259.7188,100.8594,-10.4375,0.00000000,0.00000000,0.00000000,
6.799673,0.2034,-1.3007,-0.0300,3.2820,0.0169,-0.2467,-0.2487,1.0992,-4.1417,18.8057,47.8340,-14.8289,259.7188,100.8594,-10.4375,0.00000000,0.00000000,0.00000000,
6.802384,0.2034,-1.3007,-0.0300,3.2820,0.0169,-0.2467,-0.2487,1.0992,-4.1417,18.8057,47.8340,-14.8289,251.9688,106.4062,-16.1875,0.00000000,0.00000000,0.00000000,
6.846040,0.2034,-1.3007,-0.0300,3.2820,0.0169,-0.2467,-0.2487,1.0992,-4.1417,18.8057,47.8340,-14.8289,245.2969,115.2031,-24.9062,0.00000000,0.00000000,0.00000000,
6.853542,0.2425,-1.5736,-0.1215,3.2820,0.0169,-0.2467,-0.2487,1.0992,-4.1417,18.8057,47.8340,-14.8289,245.2969,115.2031,-24.9062,0.00000000,0.00000000,0.00000000,
6.858729,0.2425,-1.5736,-0.1215,3.2820,0.0169,-0.2467,-0.2259,0.9096,-3.7005,18.8057,47.8340,-14.8289,245.2969,115.2031,-24.9062,0.00000000,0.00000000,0.00000000,
6.863679,0.2425,-1.5736,-0.1215,0.3057,-4.7632,-1.7531,-0.2259,0.9096,-3.7005,18.8057,47.8340,-14.8289,245.2969,115.2031,-24.9062,0.00000000,0.00000000,0.00000000,
6.867743,0.2425,-1.5736,-0.1215,-0.9250,-4.9846,-1.7211,-0.2259,0.9096,-3.7005,18.8057,47.8340,-14.8289,245.2969,115.2031,-24.9062,0.00000000,0.00000000,0.00000000,
6.883237,0.2425,-1.5736,-0.1215,-0.9250,-4.9846,-1.7211,-0.2259,0.9096,-3.7005,7.6449,51.9051,-12.6479,245.2969,115.2031,-24.9062,0.00000000,0.00000000,0.00000000,
6.888371,0.2425,-1.5736,-0.1215,-0.9250,-4.9846,-1.7211,-0.2259,0.9096,-3.7005,7.6449,51.9051,-12.6479,227.7188,126.5156,-36.5156,0.00000000,0.00000000,0.00000000,
6.916589,0.2425,-1.5736,-0.1215,-1.6586,-6.9622,-2.1560,-0.2259,0.9096,-3.7005,7.6449,51.9051,-12.6479,227.7188,126.5156,-36.5156,0.00000000,0.00000000,0.00000000,
6.920758,-0.1596,-1.5741,-0.2013,-1.6586,-6.9622,-2.1560,-0.2259,0.9096,-3.7005,7.6449,51.9051,-12.6479,227.7188,126.5156,-36.5156,0.00000000,0.00000000,0.00000000,
6.927358,-0.1596,-1.5741,-0.2013,-1.6586,-6.9622,-2.1560,-0.4315,1.0190,-2.7544,7.6449,51.9051,-12.6479,227.7188,126.5156,-36.5156,0.00000000,0.00000000,0.00000000,
6.931221,-0.1596,-1.5741,-0.2013,-1.6586,-6.9622,-2.1560,-0.4315,1.0190,-2.7544,7.6449,51.9051,-12.6479,224.0781,60.4375,-28.9375,0.00000000,0.00000000,0.00000000,
6.937997,-0.1596,-1.5741,-0.2013,-1.6586,-6.9622,-2.1560,-0.4315,1.0190,-2.7544,-2.3961,51.9700,-10.7792,224.0781,60.4375,-28.9375,0.00000000,0.00000000,0.00000000,
6.967397,-0.1596,-1.5741,-0.2013,-1.6586,-6.9622,-2.1560,-0.5119,0.3209,-2.5527,-2.3961,51.9700,-10.7792,224.0781,60.4375,-28.9375,0.00000000,0.00000000,0.00000000,
6.973273,-0.1596,-1.5741,-0.2013,-1.6586,-6.9622,-2.1560,-0.5119,0.3209,-2.5527,-2.3961,51.9700,-10.7792,228.7969,67.0938,-21.1719,0.00000000,0.00000000,0.00000000,
6.977597,-0.7204,-1.3822,-0.1828,-1.6586,-6.9622,-2.1560,-0.5119,0.3209,-2.5527,-2.3961,51.9700,-10.7792,228.7969,67.0938,-21.1719,0.00000000,0.00000000,0.00000000,
6.981348,-0.7204,-1.3822,-0.1828,-7.1411,-6.5228,-3.0495,-0.5119,0.3209,-2.5527,-2.3961,51.9700,-10.7792,228.7969,67.0938,-21.1719,0.00000000,0.00000000,0.00000000,
6.984809,-0.7204,-1.3822,-0.1828,-7.8517,-6.8995,-2.8805,-0.5119,0.3209,-2.5527,-2.3961,51.9700,-10.7792,228.7969,67.0938,-21.1719,0.00000000,0.00000000,0.00000000,
6.998203,-0.7204,-1.3822,-0.1828,-7.8517,-6.8995,-2.8805,-0.5119,0.3209,-2.5527,-11.0991,51.4899,-9.5971,228.7969,67.0938,-21.1719,0.00000000,0.00000000,0.00000000,
7.011999,-0.7204,-1.3822,-0.1828,-7.8517,-6.8995,-2.8805,-0.5119,0.3209,-2.5527,-11.0991,51.4899,-9.5971,237.3750,73.8125,-13.8750,0.00000000,0.00000000,0.00000000,
7.037297,-0.7204,-1.3822,-0.1828,-12.9539,-5.4736,-1.8977,-0.5119,0.3209,-2.5527,-11.0991,51.4899,-9.5971,237.3750,73.8125,-13.8750,0.00000000,0.00000000,0.00000000,
7.047575,-0.5537,-1.2834,0.1590,-12.9539,-5.4736,-1.8977,-0.5119,0.3209,-2.5527,-11.0991,51.4899,-9.5971,237.3750,73.8125,-13.8750,0.00000000,0.00000000,0.00000000,
7.051037,-0.5537,-1.2834,0.1590,-12.9539,-5.4736,-1.8977,-0.1860,-0.3667,-0.2843,-11.0991,51.4899,-9.5971,237.3750,73.8125,-13.8750,0.00000000,0.00000000,0.00000000,
7.054239,-0.5537,-1.2834,0.1590,-12.9539,-5.4736,-1.8977,-0.1860,-0.3667,-0.2843,-11.0991,51.4899,-9.5971,248.8750,81.2500,-4.8594,0.00000000,0.00000000,0.00000000,
7.078389,-0.5537,-1.2834,0.1590,-12.9539,-5.4736,-1.8977,-0.1860,-0.3667,-0.2843,-12.7657,50.8459,-8.1643,248.8750,81.2500,-4.8594,0.00000000,0.00000000,0.00000000,
7.093788,-0.5537,-1.2834,0.1590,-12.9539,-5.4736,-1.8977,-0.1860,-0.3667,-0.2843,-12.7657,50.8459,-8.1643,260.1875,82.2031,4.0156,0.00000000,0.00000000,0.00000000,
7.096908,-0.5537,-1.2834,0.1590,-11.3211,-5.0992,1.1443,-0.1860,-0.3667,-0.2843,-12.7657,50.8459,-8.1643,260.1875,82.2031,4.0156,0.00000000,0.00000000,0.00000000,
7.098832,-0.5537,-1.2834,0.1590,-10.6559,-4.7438,0.9330,-0.1860,-0.3667,-0.2843,-12.7657,50.8459,-8.1643,260.1875,82.2031,4.0156,0.00000000,0.00000000,0.00000000,
7.117565,0.4872,-0.9384,0.1837,-10.6559,-4.7438,0.9330,-0.1860,-0.3667,-0.2843,-12.7657,50.8459,-8.1643,260.1875,82.2031,4.0156,0.00000000,0.00000000,0.00000000,
7.130406,0.4872,-0.9384,0.1837,-10.6559,-4.7438,0.9330,-0.1434,1.2297,1.3575,-12.7657,50.8459,-8.1643,260.1875,82.2031,4.0156,0.00000000,0.00000000,0.00000000,
7.138746,0.4872,-0.9384,0.1837,-10.6559,-4.7438,0.9330,-0.1434,1.2297,1.3575,-12.7657,50.8459,-8.1643,270.0781,76.4844,11.8281,0.00000000,0.00000000,0.00000000,
7.142665,0.4872,-0.9384,0.1837,-10.6559,-4.7438,0.9330,-0.1434,1.2297,1.3575,-8.6660,51.1953,-8.2383,270.0781,76.4844,11.8281,0.00000000,0.00000000,0.00000000,
7.161570,0.4872,-0.9384,0.1837,1.3644,0.5849,1.7183,-0.1434,1.2297,1.3575,-8.6660,51.1953,-8.2383,270.0781,76.4844,11.8281,0.00000000,0.00000000,0.00000000,
7.176882,0.4872,-0.9384,0.1837,1.3644,0.5849,1.7183,-0.2292,0.5383,1.4136,-8.6660,51.1953,-8.2383,270.0781,76.4844,11.8281,0.00000000,0.00000000,0.00000000,
7.180056,0.2803,-1.0852,0.0445,1.3644,0.5849,1.7183,-0.2292,0.5383,1.4136,-8.6660,51.1953,-8.2383,270.0781,76.4844,11.8281,0.00000000,0.00000000,0.00000000,
7.181929,0.2803,-1.0852,0.0445,1.3644,0.5849,1.7183,-0.2292,0.5383,1.4136,-8.6660,51.1953,-8.2383,276.2500,69.9375,19.0000,0.00000000,0.00000000,0.00000000,
7.197712,0.2803,-1.0852,0.0445,1.3644,0.5849,1.7183,-0.2292,0.5383,1.4136,-4.0745,52.2105,-7.3982,276.2500,69.9375,19.0000,0.00000000,0.00000000,0.00000000,
7.221334,0.2803,-1.0852,0.0445,-0.9192,-2.3886,-0.5059,-0.2292,0.5383,1.4136,-4.0745,52.2105,-7.3982,276.2500,69.9375,19.0000,0.00000000,0.00000000,0.00000000,
7.226480,0.2803,-1.0852,0.0445,-0.5253,-2.2068,-0.4313,-0.2292,0.5383,1.4136,-4.0745,52.2105,-7.3982,276.2500,69.9375,19.0000,0.00000000,0.00000000,0.00000000,
7.229177,0.2803,-1.0852,0.0445,-0.5253,-2.2068,-0.4313,-0.2292,0.5383,1.4136,-4.0745,52.2105,-7.3982,280.5312,64.8906,24.3125,0.00000000,0.00000000,0.00000000,
7.250023,0.2803,-1.0852,0.0445,-0.5253,-2.2068,-0.4313,-0.1362,-0.0343,0.9564,-4.0745,52.2105,-7.3982,280.5312,64.8906,24.3125,0.00000000,0.00000000,0.00000000,
7.253849,0.2276,-1.0179,0.0363,-0.5253,-2.2068,-0.4313,-0.1362,-0.0343,0.9564,-4.0745,52.2105,-7.3982,280.5312,64.8906,24.3125,0.00000000,0.00000000,0.00000000,
7.260739,0.2276,-1.0179,0.0363,-0.5253,-2.2068,-0.4313,-0.1362,-0.0343,0.9564,-4.0745,52.2105,-7.3982,286.5469,59.3750,30.0781,0.00000000,0.00000000,0.00000000,
7.278167,0.2276,-1.0179,0.0363,-0.5253,-2.2068,-0.4313,-0.1362,-0.0343,0.9564,-1.2257,52.4173,-7.4984,286.5469,59.3750,30.0781,0.00000000,0.00000000,0.00000000,
7.282086,0.2276,-1.0179,0.0363,-0.1710,-0.3338,-0.3429,-0.1362,-0.0343,0.9564,-1.2257,52.4173,-7.4984,286.5469,59.3750,30.0781,0.00000000,0.00000000,0.00000000,
7.302002,0.2276,-1.0179,0.0363,-0.1710,-0.3338,-0.3429,-0.1362,-0.0343,0.9564,-1.2257,52.4173,-7.4984,286.4219,56.4844,33.2812,0.00000000,0.00000000,0.00000000,
7.310883,0.2810,-0.9631,0.0132,-0.1710,-0.3338,-0.3429,-0.1362,-0.0343,0.9564,-1.2257,52.4173,-7.4984,286.4219,56.4844,33.2812,0.00000000,0.00000000,0.00000000,
7.332095,0.2810,-0.9631,0.0132,-0.1710,-0.3338,-0.3429,-0.1508,-0.1136,0.3853,-1.2257,52.4173,-7.4984,286.4219,56.4844,33.2812,0.00000000,0.00000000,0.00000000,
7.341109,0.2810,-0.9631,0.0132,-0.1710,-0.3338,-0.3429,-0.1508,-0.1136,0.3853,0.6095,53.1676,-7.6522,286.4219,56.4844,33.2812,0.00000000,0.00000000,0.00000000,
7.346758,0.2810,-0.9631,0.0132,-0.1908,-0.3037,0.0839,-0.1508,-0.1136,0.3853,0.6095,53.1676,-7.6522,286.4219,56.4844,33.2812,0.00000000,0.00000000,0.00000000,
7.349475,0.2810,-0.9631,0.0132,-0.1743,-0.2924,0.1370,-0.1508,-0.1136,0.3853,0.6095,53.1676,-7.6522,286.4219,56.4844,33.2812,0.00000000,0.00000000,0.00000000,
7.351940,0.2810,-0.9631,0.0132,-0.1743,-0.2924,0.1370,-0.1508,-0.1136,0.3853,0.6095,53.1676,-7.6522,286.0938,57.5625,32.2188,0.00000000,0.00000000,0.00000000,
7.373136,0.2810,-0.9631,0.0132,-0.1743,-0.2924,0.1370,-0.0187,-0.0712,0.0924,0.6095,53.1676,-7.6522,286.0938,57.5625,32.2188,0.00000000,0.00000000,0.00000000,
7.379897,0.2794,-0.9599,0.0015,-0.1743,-0.2924,0.1370,-0.0187,-0.0712,0.0924,0.6095,53.1676,-7.6522,286.0938,57.5625,32.2188,0.00000000,0.00000000,0.00000000,
7.389113,0.2794,-0.9599,0.0015,-0.1743,-0.2924,0.1370,-0.0187,-0.0712,0.0924,0.6095,53.1676,-7.6522,284.4531,60.7500,28.8281,0.00000000,0.00000000,0.00000000,
7.402744,0.2794,-0.9599,0.0015,-0.1743,-0.2924,0.1370,-0.0187,-0.0712,0.0924,-0.1626,52.0412,-7.1676,284.4531,60.7500,28.8281,0.00000000,0.00000000,0.00000000,
7.407227,0.2794,-0.9599,0.0015,0.1957,-0.0782,-0.3036,-0.0187,-0.0712,0.0924,-0.1626,52.0412,-7.1676,284.4531,60.7500,28.8281,0.00000000,0.00000000,0.00000000,
7.427809,0.2794,-0.9599,0.0015,0.1957,-0.0782,-0.3036,-0.0187,-0.0712,0.0924,-0.1626,52.0412,-7.1676,284.6250,63.6406,25.7031,0.00000000,0.00000000,0.00000000,
7.451669,0.2794,-0.9599,0.0015,0.1957,-0.0782,-0.3036,0.0383,0.0032,0.4392,-0.1626,52.0412,-7.1676,284.6250,63.6406,25.7031,0.00000000,0.00000000,0.00000000,
7.455873,0.2391,-0.9809,0.0623,0.1957,-0.0782,-0.3036,0.0383,0.0032,0.4392,-0.1626,52.0412,-7.1676,284.6250,63.6406,25.7031,0.00000000,0.00000000,0.00000000,
7.459968,0.2391,-0.9809,0.0623,0.3637,-0.1832,-0.4060,0.0383,0.0032,0.4392,-0.1626,52.0412,-7.1676,284.6250,63.6406,25.7031,0.00000000,0.00000000,0.00000000,
7.462703,0.2391,-0.9809,0.0623,0.5727,-0.1283,-0.4248,0.0383,0.0032,0.4392,-0.1626,52.0412,-7.1676,284.6250,63.6406,25.7031,0.00000000,0.00000000,0.00000000,
7.469370,0.2391,-0.9809,0.0623,0.5727,-0.1283,-0.4248,0.0383,0.0032,0.4392,-0.1626,52.0412,-7.1676,284.1406,66.9844,22.3125,0.00000000,0.00000000,0.00000000,
7.477847,0.2391,-0.9809,0.0623,0.5727,-0.1283,-0.4248,0.0383,0.0032,0.4392,1.3896,52.7752,-7.8935,284.1406,66.9844,22.3125,0.00000000,0.00000000,0.00000000,
7.510405,0.2391,-0.9809,0.0623,0.5727,-0.1283,-0.4248,0.0383,0.0032,0.4392,1.3896,52.7752,-7.8935,279.9688,69.4531,19.8750,0.00000000,0.00000000,0.00000000,
7.515630,0.1870,-0.9558,0.0770,0.5727,-0.1283,-0.4248,0.0383,0.0032,0.4392,1.3896,52.7752,-7.8935,279.9688,69.4531,19.8750,0.00000000,0.00000000,0.00000000,
7.522379,0.1870,-0.9558,0.0770,0.2278,0.0880,0.4367,0.0383,0.0032,0.4392,1.3896,52.7752,-7.8935,279.9688,69.4531,19.8750,0.00000000,0.00000000,0.00000000,
7.531740,0.1870,-0.9558,0.0770,0.2278,0.0880,0.4367,-0.0111,0.0043,0.7043,1.3896,52.7752,-7.8935,279.9688,69.4531,19.8750,0.00000000,0.00000000,0.00000000,
7.539878,0.1870,-0.9558,0.0770,0.2278,0.0880,0.4367,-0.0111,0.0043,0.7043,3.6284,51.5931,-7.3106,279.9688,69.4531,19.8750,0.00000000,0.00000000,0.00000000,
7.552061,0.1870,-0.9558,0.0770,0.2278,0.0880,0.4367,-0.0111,0.0043,0.7043,3.6284,51.5931,-7.3106,277.2812,71.4688,17.8750,0.00000000,0.00000000,0.00000000,
7.571259,0.1870,-0.9558,0.0770,0.2278,0.0880,0.4367,-0.1183,-0.1239,0.2322,3.6284,51.5931,-7.3106,277.2812,71.4688,17.8750,0.00000000,0.00000000,0.00000000,
7.586629,0.1929,-0.9677,0.0344,0.2278,0.0880,0.4367,-0.1183,-0.1239,0.2322,3.6284,51.5931,-7.3106,277.2812,71.4688,17.8750,0.00000000,0.00000000,0.00000000,
7.590789,0.1929,-0.9677,0.0344,0.1053,0.2026,0.1903,-0.1183,-0.1239,0.2322,3.6284,51.5931,-7.3106,277.2812,71.4688,17.8750,0.00000000,0.00000000,0.00000000,
7.593518,0.1929,-0.9677,0.0344,0.1728,0.2139,0.2422,-0.1183,-0.1239,0.2322,3.6284,51.5931,-7.3106,277.2812,71.4688,17.8750,0.00000000,0.00000000,0.00000000,
7.598069,0.1929,-0.9677,0.0344,0.1728,0.2139,0.2422,-0.1183,-0.1239,0.2322,3.6284,51.5931,-7.3106,274.6094,72.6250,16.7969,0.00000000,0.00000000,0.00000000,
7.600477,0.1929,-0.9677,0.0344,0.1728,0.2139,0.2422,-0.1183,-0.1239,0.2322,5.2821,52.8806,-6.5102,274.6094,72.6250,16.7969,0.00000000,0.00000000,0.00000000,
7.636941,0.1929,-0.9677,0.0344,0.1728,0.2139,0.2422,-0.1183,-0.1239,0.2322,5.2821,52.8806,-6.5102,274.1250,72.7969,16.7188,0.00000000,0.00000000,0.00000000,
7.642528,0.1929,-0.9677,0.0344,0.1720,-0.0516,0.0152,-0.1183,-0.1239,0.2322,5.2821,52.8806,-6.5102,274.1250,72.7969,16.7188,0.00000000,0.00000000,0.00000000,
7.655500,0.1929,-0.9677,0.0344,0.1720,-0.0516,0.0152,-0.0684,-0.1061,0.2179,5.2821,52.8806,-6.5102,274.1250,72.7969,16.7188,0.00000000,0.00000000,0.00000000,
7.661388,0.1727,-0.9768,0.0407,0.1720,-0.0516,0.0152,-0.0684,-0.1061,0.2179,5.2821,52.8806,-6.5102,274.1250,72.7969,16.7188,0.00000000,0.00000000,0.00000000,
7.677652,0.1727,-0.9768,0.0407,0.1720,-0.0516,0.0152,-0.0684,-0.1061,0.2179,5.2821,52.8806,-6.5102,275.0156,73.0312,16.4844,0.00000000,0.00000000,0.00000000,
7.681563,0.1727,-0.9768,0.0407,0.1720,-0.0516,0.0152,-0.0684,-0.1061,0.2179,5.8471,51.8519,-6.1771,275.0156,73.0312,16.4844,0.00000000,0.00000000,0.00000000,
7.704089,0.1727,-0.9768,0.0407,0.1572,0.0458,0.1636,-0.0684,-0.1061,0.2179,5.8471,51.8519,-6.1771,275.0156,73.0312,16.4844,0.00000000,0.00000000,0.00000000,
7.710721,0.1727,-0.9768,0.0407,0.2473,0.0604,0.2014,-0.0684,-0.1061,0.2179,5.8471,51.8519,-6.1771,275.0156,73.0312,16.4844,0.00000000,0.00000000,0.00000000,
7.714883,0.1618,-0.9911,0.0261,0.2473,0.0604,0.2014,-0.0684,-0.1061,0.2179,5.8471,51.8519,-6.1771,275.0156,73.0312,16.4844,0.00000000,0.00000000,0.00000000,
7.723224,0.1618,-0.9911,0.0261,0.2473,0.0604,0.2014,-0.0684,-0.1061,0.2179,5.8471,51.8519,-6.1771,271.8906,73.6406,15.8594,0.00000000,0.00000000,0.00000000,
7.731394,0.1618,-0.9911,0.0261,0.2473,0.0604,0.2014,-0.1011,-0.0689,0.2524,5.8471,51.8519,-6.1771,271.8906,73.6406,15.8594,0.00000000,0.00000000,0.00000000,
7.738517,0.1618,-0.9911,0.0261,0.2473,0.0604,0.2014,-0.1011,-0.0689,0.2524,6.4244,51.9977,-6.3599,271.8906,73.6406,15.8594,0.00000000,0.00000000,0.00000000,
7.760582,0.1618,-0.9911,0.0261,0.2294,-0.0516,0.0701,-0.1011,-0.0689,0.2524,6.4244,51.9977,-6.3599,271.8906,73.6406,15.8594,0.00000000,0.00000000,0.00000000,
7.763946,0.1618,-0.9911,0.0261,0.2294,-0.0516,0.0701,-0.1011,-0.0689,0.2524,6.4244,51.9977,-6.3599,270.7188,74.8906,14.5312,0.00000000,0.00000000,0.00000000,
7.772209,0.1618,-0.9911,0.0261,0.2294,-0.0516,0.0701,-0.1581,-0.1813,0.2566,6.4244,51.9977,-6.3599,270.7188,74.8906,14.5312,0.00000000,0.00000000,0.00000000,
7.785112,0.1387,-0.9876,0.0013,0.2294,-0.0516,0.0701,-0.1581,-0.1813,0.2566,6.4244,51.9977,-6.3599,270.7188,74.8906,14.5312,0.00000000,0.00000000,0.00000000,
7.797525,0.1387,-0.9876,0.0013,0.2294,-0.0516,0.0701,-0.1581,-0.1813,0.2566,7.4412,52.5717,-6.4221,270.7188,74.8906,14.5312,0.00000000,0.00000000,0.00000000,
7.804671,0.1387,-0.9876,0.0013,0.2294,-0.0516,0.0701,-0.1581,-0.1813,0.2566,7.4412,52.5717,-6.4221,269.2656,76.5625,12.7656,0.00000000,0.00000000,0.00000000,
7.825460,0.1387,-0.9876,0.0013,0.2334,-0.1811,-0.0882,-0.1581,-0.1813,0.2566,7.4412,52.5717,-6.4221,269.2656,76.5625,12.7656,0.00000000,0.00000000,0.00000000,
7.830615,0.1387,-0.9876,0.0013,0.2685,-0.1725,-0.0135,-0.1581,-0.1813,0.2566,7.4412,52.5717,-6.4221,269.2656,76.5625,12.7656,0.00000000,0.00000000,0.00000000,
7.842222,0.1236,-0.9742,-0.0047,0.2685,-0.1725,-0.0135,-0.1581,-0.1813,0.2566,7.4412,52.5717,-6.4221,269.2656,76.5625,12.7656,0.00000000,0.00000000,0.00000000,
7.846645,0.1236,-0.9742,-0.0047,0.2685,-0.1725,-0.0135,-0.1581,-0.1813,0.2566,7.4412,52.5717,-6.4221,268.2188,77.6719,11.7031,0.00000000,0.00000000,0.00000000,
7.853197,0.1236,-0.9742,-0.0047,0.2685,-0.1725,-0.0135,-0.1021,-0.2846,0.0455,7.4412,52.5717,-6.4221,268.2188,77.6719,11.7031,0.00000000,0.00000000,0.00000000,
7.877734,0.1236,-0.9742,-0.0047,0.2685,-0.1725,-0.0135,-0.1021,-0.2846,0.0455,7.6638,52.3426,-6.4628,268.2188,77.6719,11.7031,0.00000000,0.00000000,0.00000000,
7.887182,0.1236,-0.9742,-0.0047,-0.0813,0.2020,-0.0935,-0.1021,-0.2846,0.0455,7.6638,52.3426,-6.4628,268.2188,77.6719,11.7031,0.00000000,0.00000000,0.00000000,
7.891251,0.1236,-0.9742,-0.0047,-0.0813,0.2020,-0.0935,-0.1021,-0.2846,0.0455,7.6638,52.3426,-6.4628,268.8438,78.1719,11.2812,0.00000000,0.00000000,0.00000000,
7.913090,0.1450,-1.0233,-0.0389,-0.0813,0.2020,-0.0935,-0.1021,-0.2846,0.0455,7.6638,52.3426,-6.4628,268.8438,78.1719,11.2812,0.00000000,0.00000000,0.00000000,
7.928431,0.1450,-1.0233,-0.0389,-0.0813,0.2020,-0.0935,-0.1021,-0.2846,0.0455,7.6638,52.3426,-6.4628,267.9688,78.7031,10.7969,0.00000000,0.00000000,0.00000000,
7.932264,0.1450,-1.0233,-0.0389,-0.0813,0.2020,-0.0935,0.0486,-0.4092,-0.0101,7.6638,52.3426,-6.4628,267.9688,78.7031,10.7969,0.00000000,0.00000000,0.00000000,
7.938977,0.1450,-1.0233,-0.0389,-0.0813,0.2020,-0.0935,0.0486,-0.4092,-0.0101,7.6285,51.9577,-6.5943,267.9688,78.7031,10.7969,0.00000000,0.00000000,0.00000000,
7.945778,0.1450,-1.0233,-0.0389,0.0885,-0.0154,-0.1078,0.0486,-0.4092,-0.0101,7.6285,51.9577,-6.5943,267.9688,78.7031,10.7969,0.00000000,0.00000000,0.00000000,
7.949932,0.1450,-1.0233,-0.0389,0.2044,-0.0008,-0.1393,0.0486,-0.4092,-0.0101,7.6285,51.9577,-6.5943,267.9688,78.7031,10.7969,0.00000000,0.00000000,0.00000000,
7.969215,0.1450,-1.0233,-0.0389,0.2044,-0.0008,-0.1393,0.0486,-0.4092,-0.0101,7.6285,51.9577,-6.5943,269.2500,79.2344,10.2969,0.00000000,0.00000000,0.00000000,
7.973832,0.1450,-1.0233,-0.0389,0.2044,-0.0008,-0.1393,0.2842,-0.3659,0.3763,7.6285,51.9577,-6.5943,269.2500,79.2344,10.2969,0.00000000,0.00000000,0.00000000,
7.988053,0.1097,-0.9738,-0.0093,0.2044,-0.0008,-0.1393,0.2842,-0.3659,0.3763,7.6285,51.9577,-6.5943,269.2500,79.2344,10.2969,0.00000000,0.00000000,0.00000000,
8.001402,0.1097,-0.9738,-0.0093,0.2044,-0.0008,-0.1393,0.2842,-0.3659,0.3763,8.1397,51.6070,-6.9402,269.2500,79.2344,10.2969,0.00000000,0.00000000,0.00000000,
8.006356,0.1097,-0.9738,-0.0093,0.4296,-0.4955,-0.7734,0.2842,-0.3659,0.3763,8.1397,51.6070,-6.9402,269.2500,79.2344,10.2969,0.00000000,0.00000000,0.00000000,
8.010457,0.1097,-0.9738,-0.0093,0.4296,-0.4955,-0.7734,0.2842,-0.3659,0.3763,8.1397,51.6070,-6.9402,268.0625,79.8438,9.7344,0.00000000,0.00000000,0.00000000,
8.047701,0.0624,-0.9180,0.0530,0.4296,-0.4955,-0.7734,0.2842,-0.3659,0.3763,8.1397,51.6070,-6.9402,268.0625,79.8438,9.7344,0.00000000,0.00000000,0.00000000,
8.054774,0.0624,-0.9180,0.0530,0.4296,-0.4955,-0.7734,0.2842,-0.3659,0.3763,8.1397,51.6070,-6.9402,267.7500,80.5000,9.1562,0.00000000,0.00000000,0.00000000,
8.059312,0.0624,-0.9180,0.0530,0.4296,-0.4955,-0.7734,0.4365,-0.2830,0.2201,8.1397,51.6070,-6.9402,267.7500,80.5000,9.1562,0.00000000,0.00000000,0.00000000,
8.070500,0.0624,-0.9180,0.0530,-0.2377,0.7394,0.4379,0.4365,-0.2830,0.2201,8.1397,51.6070,-6.9402,267.7500,80.5000,9.1562,0.00000000,0.00000000,0.00000000,
8.075946,0.0624,-0.9180,0.0530,-0.1805,0.7248,0.2531,0.4365,-0.2830,0.2201,8.1397,51.6070,-6.9402,267.7500,80.5000,9.1562,0.00000000,0.00000000,0.00000000,
