time,gFx,gFy,gFz,ax,ay,az,wx,wy,wz,Bx,By,Bz,Azimuth,Pitch,Roll,Latitude,Longitude,Speed (m/s),
0.119475,0.0690,0.4340,0.8816,0.0000,0.0000,0.0000,0.0000,0.0000,0.0000,0.0000,0.0000,0.0000,0.0000,0.0000,0.0000,0.00000000,0.00000000,0.00000000,
0.149997,0.0690,0.4340,0.8816,0.0000,0.0000,0.0000,0.0000,0.0000,0.0000,46.2360,34.1339,-21.8780,0.0000,0.0000,0.0000,0.00000000,0.00000000,0.00000000,
0.185874,0.0739,0.4324,0.9061,0.0000,0.0000,0.0000,0.0000,0.0000,0.0000,46.2360,34.1339,-21.8780,0.0000,0.0000,0.0000,0.00000000,0.00000000,0.00000000,
0.209193,0.0739,0.4324,0.9061,0.0000,0.0000,0.0000,0.0000,0.0000,0.0000,45.7603,33.1641,-22.2415,0.0000,0.0000,0.0000,0.00000000,0.00000000,0.00000000,
0.225557,0.0739,0.4324,0.9061,0.0324,-0.0301,0.1066,0.0000,0.0000,0.0000,45.7603,33.1641,-22.2415,0.0000,0.0000,0.0000,0.00000000,0.00000000,0.00000000,
0.245545,0.0635,0.4429,0.8896,0.0324,-0.0301,0.1066,0.0000,0.0000,0.0000,45.7603,33.1641,-22.2415,0.0000,0.0000,0.0000,0.00000000,0.00000000,0.00000000,
0.258317,0.0635,0.4429,0.8896,0.0324,-0.0301,0.1066,-0.0091,-0.0094,-0.0480,45.7603,33.1641,-22.2415,0.0000,0.0000,0.0000,0.00000000,0.00000000,0.00000000,
0.286065,0.0635,0.4429,0.8896,0.0210,0.0684,-0.0589,-0.0091,-0.0094,-0.0480,45.7603,33.1641,-22.2415,0.0000,0.0000,0.0000,0.00000000,0.00000000,0.00000000,
0.290798,0.0635,0.4429,0.8896,0.0210,0.0684,-0.0589,-0.0091,-0.0094,-0.0480,45.4338,33.7686,-22.9359,0.0000,0.0000,0.0000,0.00000000,0.00000000,0.00000000,
0.299764,0.0635,0.4429,0.8896,0.0210,0.0684,-0.0589,-0.0350,-0.0256,-0.0524,45.4338,33.7686,-22.9359,0.0000,0.0000,0.0000,0.00000000,0.00000000,0.00000000,
0.318532,0.0706,0.4441,0.9328,0.0210,0.0684,-0.0589,-0.0350,-0.0256,-0.0524,45.4338,33.7686,-22.9359,0.0000,0.0000,0.0000,0.00000000,0.00000000,0.00000000,
0.346734,0.0706,0.4441,0.9328,-0.1197,0.0933,0.2800,-0.0350,-0.0256,-0.0524,45.4338,33.7686,-22.9359,0.0000,0.0000,0.0000,0.00000000,0.00000000,0.00000000,
0.351093,0.0706,0.4441,0.9328,-0.0524,0.0627,0.2108,-0.0350,-0.0256,-0.0524,45.4338,33.7686,-22.9359,0.0000,0.0000,0.0000,0.00000000,0.00000000,0.00000000,
0.355126,0.0706,0.4441,0.9328,-0.0524,0.0627,0.2108,-0.0350,-0.0256,-0.0524,46.0507,33.8142,-22.5895,0.0000,0.0000,0.0000,0.00000000,0.00000000,0.00000000,
0.378488,0.0537,0.4353,0.9052,-0.0524,0.0627,0.2108,-0.0350,-0.0256,-0.0524,46.0507,33.8142,-22.5895,0.0000,0.0000,0.0000,0.00000000,0.00000000,0.00000000,
0.381463,0.0537,0.4353,0.9052,-0.0524,0.0627,0.2108,0.0155,0.1580,0.0243,46.0507,33.8142,-22.5895,0.0000,0.0000,0.0000,0.00000000,0.00000000,0.00000000,
0.406394,0.0537,0.4353,0.9052,0.0573,-0.0176,0.0116,0.0155,0.1580,0.0243,46.0507,33.8142,-22.5895,0.0000,0.0000,0.0000,0.00000000,0.00000000,0.00000000,
0.410267,0.0537,0.4353,0.9052,0.0573,-0.0176,0.0116,0.0155,0.1580,0.0243,46.4404,34.4634,-22.7322,0.0000,0.0000,0.0000,0.00000000,0.00000000,0.00000000,
0.439915,0.0537,0.4353,0.9052,0.0573,-0.0176,0.0116,0.0155,0.1580,0.0243,46.4404,34.4634,-22.7322,233.9062,-25.5312,4.3594,0.00000000,0.00000000,0.00000000,
0.447079,0.0127,0.4405,0.9445,0.0573,-0.0176,0.0116,0.0155,0.1580,0.0243,46.4404,34.4634,-22.7322,233.9062,-25.5312,4.3594,0.00000000,0.00000000,0.00000000,
0.459500,0.0127,0.4405,0.9445,0.0573,-0.0176,0.0116,0.0182,0.1632,0.0095,46.4404,34.4634,-22.7322,233.9062,-25.5312,4.3594,0.00000000,0.00000000,0.00000000,
0.466392,0.0127,0.4405,0.9445,-0.0538,-0.0183,0.1617,0.0182,0.1632,0.0095,46.4404,34.4634,-22.7322,233.9062,-25.5312,4.3594,0.00000000,0.00000000,0.00000000,
0.468802,0.0127,0.4405,0.9445,0.0514,-0.0462,0.1450,0.0182,0.1632,0.0095,46.4404,34.4634,-22.7322,233.9062,-25.5312,4.3594,0.00000000,0.00000000,0.00000000,
0.480491,0.0127,0.4405,0.9445,0.0514,-0.0462,0.1450,0.0182,0.1632,0.0095,46.4404,34.4634,-22.7322,228.9531,-25.2656,3.8594,0.00000000,0.00000000,0.00000000,
0.490339,0.0127,0.4405,0.9445,0.0514,-0.0462,0.1450,0.0182,0.1632,0.0095,47.0633,33.2203,-23.9520,228.9531,-25.2656,3.8594,0.00000000,0.00000000,0.00000000,
0.499456,0.0127,0.4405,0.9445,0.0514,-0.0462,0.1450,0.0983,0.3553,0.0612,47.0633,33.2203,-23.9520,228.9531,-25.2656,3.8594,0.00000000,0.00000000,0.00000000,
0.517344,-0.0178,0.4433,0.9240,0.0514,-0.0462,0.1450,0.0983,0.3553,0.0612,47.0633,33.2203,-23.9520,228.9531,-25.2656,3.8594,0.00000000,0.00000000,0.00000000,
0.525446,-0.0178,0.4433,0.9240,0.0514,-0.0462,0.1450,0.0983,0.3553,0.0612,47.0633,33.2203,-23.9520,229.9844,-26.5156,4.9531,0.00000000,0.00000000,0.00000000,
0.529102,-0.0178,0.4433,0.9240,-0.3227,-0.0467,0.2039,0.0983,0.3553,0.0612,47.0633,33.2203,-23.9520,229.9844,-26.5156,4.9531,0.00000000,0.00000000,0.00000000,
0.549568,-0.0178,0.4433,0.9240,-0.3227,-0.0467,0.2039,0.0983,0.3553,0.0612,47.8583,33.0923,-22.3180,229.9844,-26.5156,4.9531,0.00000000,0.00000000,0.00000000,
0.563883,-0.0178,0.4433,0.9240,-0.3227,-0.0467,0.2039,0.0983,0.3553,0.0612,47.8583,33.0923,-22.3180,230.9219,-26.1562,2.5156,0.00000000,0.00000000,0.00000000,
0.580450,-0.0194,0.4694,0.7877,-0.3227,-0.0467,0.2039,0.0983,0.3553,0.0612,47.8583,33.0923,-22.3180,230.9219,-26.1562,2.5156,0.00000000,0.00000000,0.00000000,
0.584437,-0.0194,0.4694,0.7877,-0.3227,-0.0467,0.2039,0.3025,0.0149,0.0424,47.8583,33.0923,-22.3180,230.9219,-26.1562,2.5156,0.00000000,0.00000000,0.00000000,
0.587528,-0.0194,0.4694,0.7877,-0.3999,-0.0392,-0.0156,0.3025,0.0149,0.0424,47.8583,33.0923,-22.3180,230.9219,-26.1562,2.5156,0.00000000,0.00000000,0.00000000,
0.589947,-0.0194,0.4694,0.7877,-0.3598,-0.1632,0.0520,0.3025,0.0149,0.0424,47.8583,33.0923,-22.3180,230.9219,-26.1562,2.5156,0.00000000,0.00000000,0.00000000,
0.606192,-0.0194,0.4694,0.7877,-0.3598,-0.1632,0.0520,0.3025,0.0149,0.0424,47.8583,33.0923,-22.3180,230.4219,-25.4219,3.7031,0.00000000,0.00000000,0.00000000,
0.609826,-0.0194,0.4694,0.7877,-0.3598,-0.1632,0.0520,0.3025,0.0149,0.0424,48.3663,32.1506,-22.2509,230.4219,-25.4219,3.7031,0.00000000,0.00000000,0.00000000,
0.647105,-0.0194,0.4694,0.7877,-0.3598,-0.1632,0.0520,0.3025,0.0149,0.0424,48.3663,32.1506,-22.2509,230.9375,-25.5000,3.9844,0.00000000,0.00000000,0.00000000,
0.651204,0.0542,0.4784,0.8193,-0.3598,-0.1632,0.0520,0.3025,0.0149,0.0424,48.3663,32.1506,-22.2509,230.9375,-25.5000,3.9844,0.00000000,0.00000000,0.00000000,
0.654385,0.0542,0.4784,0.8193,-0.1427,0.0518,-1.2692,0.3025,0.0149,0.0424,48.3663,32.1506,-22.2509,230.9375,-25.5000,3.9844,0.00000000,0.00000000,0.00000000,
0.661790,0.0542,0.4784,0.8193,-0.1427,0.0518,-1.2692,0.0897,0.1092,0.2184,48.3663,32.1506,-22.2509,230.9375,-25.5000,3.9844,0.00000000,0.00000000,0.00000000,
0.689662,0.0542,0.4784,0.8193,-0.1427,0.0518,-1.2692,0.0897,0.1092,0.2184,48.3663,32.1506,-22.2509,231.7969,-25.7031,3.0156,0.00000000,0.00000000,0.00000000,
0.693714,0.0542,0.4784,0.8193,-0.1427,0.0518,-1.2692,0.0897,0.1092,0.2184,47.9890,32.3697,-22.3691,231.7969,-25.7031,3.0156,0.00000000,0.00000000,0.00000000,
0.701397,0.0542,0.4784,0.8193,-0.1427,0.0518,-1.2692,-0.1995,0.2298,0.3060,47.9890,32.3697,-22.3691,231.7969,-25.7031,3.0156,0.00000000,0.00000000,0.00000000,
0.709253,0.0542,0.4784,0.8193,0.4535,0.1300,-0.4546,-0.1995,0.2298,0.3060,47.9890,32.3697,-22.3691,231.7969,-25.7031,3.0156,0.00000000,0.00000000,0.00000000,
0.712315,0.0542,0.4784,0.8193,0.4329,0.1835,-0.4440,-0.1995,0.2298,0.3060,47.9890,32.3697,-22.3691,231.7969,-25.7031,3.0156,0.00000000,0.00000000,0.00000000,
0.733266,0.1052,0.4556,0.9333,0.4329,0.1835,-0.4440,-0.1995,0.2298,0.3060,47.9890,32.3697,-22.3691,231.7969,-25.7031,3.0156,0.00000000,0.00000000,0.00000000,
0.736661,0.1052,0.4556,0.9333,0.4329,0.1835,-0.4440,-0.1995,0.2298,0.3060,47.9890,32.3697,-22.3691,231.5781,-25.7500,2.7031,0.00000000,0.00000000,0.00000000,
0.749755,0.1052,0.4556,0.9333,0.4329,0.1835,-0.4440,-0.1995,0.2298,0.3060,48.5365,33.5535,-23.8153,231.5781,-25.7500,2.7031,0.00000000,0.00000000,0.00000000,
0.768172,0.1052,0.4556,0.9333,0.7612,0.0167,0.4307,-0.1995,0.2298,0.3060,48.5365,33.5535,-23.8153,231.5781,-25.7500,2.7031,0.00000000,0.00000000,0.00000000,
0.771982,0.1052,0.4556,0.9333,0.7612,0.0167,0.4307,-0.1995,0.2298,0.3060,48.5365,33.5535,-23.8153,231.3281,-25.9844,2.0312,0.00000000,0.00000000,0.00000000,
0.787811,0.1140,0.4298,0.9479,0.7612,0.0167,0.4307,-0.1995,0.2298,0.3060,48.5365,33.5535,-23.8153,231.3281,-25.9844,2.0312,0.00000000,0.00000000,0.00000000,
0.790599,0.1140,0.4298,0.9479,0.7612,0.0167,0.4307,-0.1224,-0.0337,0.2483,48.5365,33.5535,-23.8153,231.3281,-25.9844,2.0312,0.00000000,0.00000000,0.00000000,
0.808602,0.1140,0.4298,0.9479,0.7612,0.0167,0.4307,-0.1224,-0.0337,0.2483,48.4309,33.5846,-23.4429,231.3281,-25.9844,2.0312,0.00000000,0.00000000,0.00000000,
0.813024,0.1140,0.4298,0.9479,0.7612,0.0167,0.4307,-0.1224,-0.0337,0.2483,48.4309,33.5846,-23.4429,230.9688,-26.2031,1.3594,0.00000000,0.00000000,0.00000000,
0.823348,0.1140,0.4298,0.9479,0.7612,0.0167,0.4307,0.0161,-0.1786,0.0072,48.4309,33.5846,-23.4429,230.9688,-26.2031,1.3594,0.00000000,0.00000000,0.00000000,
0.828090,0.1140,0.4298,0.9479,0.6794,-0.1990,0.5531,0.0161,-0.1786,0.0072,48.4309,33.5846,-23.4429,230.9688,-26.2031,1.3594,0.00000000,0.00000000,0.00000000,
0.830499,0.1140,0.4298,0.9479,0.5640,-0.1881,0.5129,0.0161,-0.1786,0.0072,48.4309,33.5846,-23.4429,230.9688,-26.2031,1.3594,0.00000000,0.00000000,0.00000000,
0.848425,0.1288,0.4319,0.9261,0.5640,-0.1881,0.5129,0.0161,-0.1786,0.0072,48.4309,33.5846,-23.4429,230.9688,-26.2031,1.3594,0.00000000,0.00000000,0.00000000,
0.857151,0.1288,0.4319,0.9261,0.5640,-0.1881,0.5129,0.0161,-0.1786,0.0072,48.4309,33.5846,-23.4429,230.9062,-26.7500,1.3438,0.00000000,0.00000000,0.00000000,
0.888964,0.1288,0.4319,0.9261,0.5640,-0.1881,0.5129,0.0161,-0.1786,0.0072,48.7337,34.3694,-23.0860,230.9062,-26.7500,1.3438,0.00000000,0.00000000,0.00000000,
0.892992,0.1288,0.4319,0.9261,0.7572,-0.1293,0.1646,0.0161,-0.1786,0.0072,48.7337,34.3694,-23.0860,230.9062,-26.7500,1.3438,0.00000000,0.00000000,0.00000000,
0.896867,0.1288,0.4319,0.9261,0.7572,-0.1293,0.1646,0.0161,-0.1786,0.0072,48.7337,34.3694,-23.0860,230.6875,-27.7031,1.4062,0.00000000,0.00000000,0.00000000,
0.900640,0.1288,0.4319,0.9261,0.7572,-0.1293,0.1646,-0.0304,0.0976,-0.2925,48.7337,34.3694,-23.0860,230.6875,-27.7031,1.4062,0.00000000,0.00000000,0.00000000,
0.923560,0.0179,0.4422,0.9512,0.7572,-0.1293,0.1646,-0.0304,0.0976,-0.2925,48.7337,34.3694,-23.0860,230.6875,-27.7031,1.4062,0.00000000,0.00000000,0.00000000,
0.940734,0.0179,0.4422,0.9512,0.7572,-0.1293,0.1646,-0.0304,0.0976,-0.2925,48.7337,34.3694,-23.0860,230.1094,-27.8906,1.4219,0.00000000,0.00000000,0.00000000,
0.949961,0.0179,0.4422,0.9512,0.7572,-0.1293,0.1646,-0.0304,0.0976,-0.2925,48.4615,32.8060,-23.0229,230.1094,-27.8906,1.4219,0.00000000,0.00000000,0.00000000,
0.954006,0.0179,0.4422,0.9512,0.0482,-0.1012,0.4847,-0.0304,0.0976,-0.2925,48.4615,32.8060,-23.0229,230.1094,-27.8906,1.4219,0.00000000,0.00000000,0.00000000,
0.956530,0.0179,0.4422,0.9512,0.0834,-0.1535,0.4777,-0.0304,0.0976,-0.2925,48.4615,32.8060,-23.0229,230.1094,-27.8906,1.4219,0.00000000,0.00000000,0.00000000,
0.979371,-0.0273,0.4600,0.8726,0.0834,-0.1535,0.4777,-0.0304,0.0976,-0.2925,48.4615,32.8060,-23.0229,230.1094,-27.8906,1.4219,0.00000000,0.00000000,0.00000000,
0.983323,-0.0273,0.4600,0.8726,0.0834,-0.1535,0.4777,0.1588,-0.0365,-0.2376,48.4615,32.8060,-23.0229,230.1094,-27.8906,1.4219,0.00000000,0.00000000,0.00000000,
0.985713,-0.0273,0.4600,0.8726,0.0834,-0.1535,0.4777,0.1588,-0.0365,-0.2376,48.4615,32.8060,-23.0229,228.5938,-27.0156,1.1719,0.00000000,0.00000000,0.00000000,
1.009912,-0.0273,0.4600,0.8726,0.0834,-0.1535,0.4777,0.1588,-0.0365,-0.2376,48.0015,33.3030,-22.3841,228.5938,-27.0156,1.1719,0.00000000,0.00000000,0.00000000,
1.014082,-0.0273,0.4600,0.8726,-0.5298,-0.0064,-0.0639,0.1588,-0.0365,-0.2376,48.0015,33.3030,-22.3841,228.5938,-27.0156,1.1719,0.00000000,0.00000000,0.00000000,
1.033745,-0.0273,0.4600,0.8726,-0.5298,-0.0064,-0.0639,0.0178,-0.0988,-0.0239,48.0015,33.3030,-22.3841,228.5938,-27.0156,1.1719,0.00000000,0.00000000,0.00000000,
1.037066,-0.0273,0.4600,0.8726,-0.5298,-0.0064,-0.0639,0.0178,-0.0988,-0.0239,48.0015,33.3030,-22.3841,227.9219,-26.6250,1.3906,0.00000000,0.00000000,0.00000000,
1.050634,0.0269,0.4587,0.8406,-0.5298,-0.0064,-0.0639,0.0178,-0.0988,-0.0239,48.0015,33.3030,-22.3841,227.9219,-26.6250,1.3906,0.00000000,0.00000000,0.00000000,
1.063638,0.0269,0.4587,0.8406,-0.5298,-0.0064,-0.0639,0.0178,-0.0988,-0.0239,48.0015,33.3030,-22.3841,227.5625,-26.4688,1.8125,0.00000000,0.00000000,0.00000000,
1.074030,0.0269,0.4587,0.8406,-0.5077,0.0499,-0.4867,0.0178,-0.0988,-0.0239,48.0015,33.3030,-22.3841,227.5625,-26.4688,1.8125,0.00000000,0.00000000,0.00000000,
1.077046,0.0269,0.4587,0.8406,-0.5023,0.0577,-0.4607,0.0178,-0.0988,-0.0239,48.0015,33.3030,-22.3841,227.5625,-26.4688,1.8125,0.00000000,0.00000000,0.00000000,
1.100050,0.0269,0.4587,0.8406,-0.5023,0.0577,-0.4607,0.0178,-0.0988,-0.0239,47.9529,32.9948,-22.8960,227.5625,-26.4688,1.8125,0.00000000,0.00000000,0.00000000,
1.103795,0.0269,0.4587,0.8406,-0.5023,0.0577,-0.4607,-0.0787,0.0398,0.0131,47.9529,32.9948,-22.8960,227.5625,-26.4688,1.8125,0.00000000,0.00000000,0.00000000,
1.106237,0.0269,0.4587,0.8406,-0.5023,0.0577,-0.4607,-0.0787,0.0398,0.0131,47.9529,32.9948,-22.8960,227.6094,-26.5000,2.2031,0.00000000,0.00000000,0.00000000,
1.111448,0.0358,0.4616,0.9413,-0.5023,0.0577,-0.4607,-0.0787,0.0398,0.0131,47.9529,32.9948,-22.8960,227.6094,-26.5000,2.2031,0.00000000,0.00000000,0.00000000,
1.132180,0.0358,0.4616,0.9413,0.1956,0.1057,-0.3336,-0.0787,0.0398,0.0131,47.9529,32.9948,-22.8960,227.6094,-26.5000,2.2031,0.00000000,0.00000000,0.00000000,
1.146892,0.0358,0.4616,0.9413,0.1956,0.1057,-0.3336,-0.0787,0.0398,0.0131,47.9529,32.9948,-22.8960,227.9844,-26.4219,1.9219,0.00000000,0.00000000,0.00000000,
1.150575,0.0358,0.4616,0.9413,0.1956,0.1057,-0.3336,-0.0787,0.0398,0.0131,49.3158,33.3709,-23.9505,227.9844,-26.4219,1.9219,0.00000000,0.00000000,0.00000000,
1.184181,0.0013,0.4489,0.9444,0.1956,0.1057,-0.3336,-0.0787,0.0398,0.0131,49.3158,33.3709,-23.9505,227.9844,-26.4219,1.9219,0.00000000,0.00000000,0.00000000,
1.188097,0.0013,0.4489,0.9444,0.1956,0.1057,-0.3336,0.0024,0.0763,-0.0661,49.3158,33.3709,-23.9505,227.9844,-26.4219,1.9219,0.00000000,0.00000000,0.00000000,
1.190745,0.0013,0.4489,0.9444,0.1956,0.1057,-0.3336,0.0024,0.0763,-0.0661,49.3158,33.3709,-23.9505,228.7031,-26.3906,1.3594,0.00000000,0.00000000,0.00000000,
1.193264,0.0013,0.4489,0.9444,-0.1707,0.0223,0.6528,0.0024,0.0763,-0.0661,49.3158,33.3709,-23.9505,228.7031,-26.3906,1.3594,0.00000000,0.00000000,0.00000000,
1.195548,0.0013,0.4489,0.9444,-0.1755,-0.0344,0.6448,0.0024,0.0763,-0.0661,49.3158,33.3709,-23.9505,228.7031,-26.3906,1.3594,0.00000000,0.00000000,0.00000000,
1.212720,0.0013,0.4489,0.9444,-0.1755,-0.0344,0.6448,0.0024,0.0763,-0.0661,48.8529,33.4485,-23.3924,228.7031,-26.3906,1.3594,0.00000000,0.00000000,0.00000000,
1.222759,0.0013,0.4489,0.9444,-0.1755,-0.0344,0.6448,0.1776,-0.0406,-0.0644,48.8529,33.4485,-23.3924,228.7031,-26.3906,1.3594,0.00000000,0.00000000,0.00000000,
1.229401,0.0013,0.4489,0.9444,-0.1755,-0.0344,0.6448,0.1776,-0.0406,-0.0644,48.8529,33.4485,-23.3924,229.3906,-26.7812,1.0625,0.00000000,0.00000000,0.00000000,
1.252585,0.0013,0.4489,0.9444,-0.2250,-0.0782,0.1674,0.1776,-0.0406,-0.0644,48.8529,33.4485,-23.3924,229.3906,-26.7812,1.0625,0.00000000,0.00000000,0.00000000,
1.256131,0.0016,0.4724,0.8534,-0.2250,-0.0782,0.1674,0.1776,-0.0406,-0.0644,48.8529,33.4485,-23.3924,229.3906,-26.7812,1.0625,0.00000000,0.00000000,0.00000000,
1.278221,0.0016,0.4724,0.8534,-0.2250,-0.0782,0.1674,0.1776,-0.0406,-0.0644,48.8529,33.4485,-23.3924,229.7812,-27.0938,1.0625,0.00000000,0.00000000,0.00000000,
1.289504,0.0016,0.4724,0.8534,-0.2250,-0.0782,0.1674,0.1776,-0.0406,-0.0644,48.3246,33.1696,-22.8217,229.7812,-27.0938,1.0625,0.00000000,0.00000000,0.00000000,
1.302959,0.0016,0.4724,0.8534,-0.2250,-0.0782,0.1674,0.1099,-0.0372,-0.0207,48.3246,33.1696,-22.8217,229.7812,-27.0938,1.0625,0.00000000,0.00000000,0.00000000,
1.318851,0.0322,0.4675,0.8533,-0.2250,-0.0782,0.1674,0.1099,-0.0372,-0.0207,48.3246,33.1696,-22.8217,229.7812,-27.0938,1.0625,0.00000000,0.00000000,0.00000000,
1.321302,0.0322,0.4675,0.8533,-0.1879,0.0477,-0.5674,0.1099,-0.0372,-0.0207,48.3246,33.1696,-22.8217,229.7812,-27.0938,1.0625,0.00000000,0.00000000,0.00000000,
1.323827,0.0322,0.4675,0.8533,-0.1896,0.0177,-0.5242,0.1099,-0.0372,-0.0207,48.3246,33.1696,-22.8217,229.7812,-27.0938,1.0625,0.00000000,0.00000000,0.00000000,
1.325711,0.0322,0.4675,0.8533,-0.1896,0.0177,-0.5242,0.1099,-0.0372,-0.0207,48.3246,33.1696,-22.8217,229.8906,-27.1406,1.2344,0.00000000,0.00000000,0.00000000,
1.349836,0.0322,0.4675,0.8533,-0.1896,0.0177,-0.5242,0.1099,-0.0372,-0.0207,48.4949,32.8331,-22.8880,229.8906,-27.1406,1.2344,0.00000000,0.00000000,0.00000000,
1.357696,0.0322,0.4675,0.8533,-0.1896,0.0177,-0.5242,0.1099,-0.0372,-0.0207,48.4949,32.8331,-22.8880,229.8125,-27.0625,1.4062,0.00000000,0.00000000,0.00000000,
1.374599,0.0322,0.4675,0.8533,0.1657,0.0104,-0.3119,0.1099,-0.0372,-0.0207,48.4949,32.8331,-22.8880,229.8125,-27.0625,1.4062,0.00000000,0.00000000,0.00000000,
1.381946,0.0322,0.4675,0.8533,0.1657,0.0104,-0.3119,-0.1212,0.2594,0.0231,48.4949,32.8331,-22.8880,229.8125,-27.0625,1.4062,0.00000000,0.00000000,0.00000000,
1.385309,0.0026,0.4541,0.9125,0.1657,0.0104,-0.3119,-0.1212,0.2594,0.0231,48.4949,32.8331,-22.8880,229.8125,-27.0625,1.4062,0.00000000,0.00000000,0.00000000,
1.396414,0.0026,0.4541,0.9125,0.1657,0.0104,-0.3119,-0.1212,0.2594,0.0231,48.4949,32.8331,-22.8880,229.7812,-26.8125,1.2031,0.00000000,0.00000000,0.00000000,
1.409544,0.0026,0.4541,0.9125,0.1657,0.0104,-0.3119,-0.1212,0.2594,0.0231,48.3323,32.9178,-23.7477,229.7812,-26.8125,1.2031,0.00000000,0.00000000,0.00000000,
1.423870,0.0026,0.4541,0.9125,0.1657,0.0104,-0.3119,0.2397,-0.5682,0.0057,48.3323,32.9178,-23.7477,229.7812,-26.8125,1.2031,0.00000000,0.00000000,0.00000000,
1.434359,0.0026,0.4541,0.9125,-0.1280,-0.0745,0.2045,0.2397,-0.5682,0.0057,48.3323,32.9178,-23.7477,229.7812,-26.8125,1.2031,0.00000000,0.00000000,0.00000000,
1.439640,0.0026,0.4541,0.9125,-0.3434,-0.1677,0.2518,0.2397,-0.5682,0.0057,48.3323,32.9178,-23.7477,229.7812,-26.8125,1.2031,0.00000000,0.00000000,0.00000000,
1.444009,0.0026,0.4541,0.9125,-0.3434,-0.1677,0.2518,0.2397,-0.5682,0.0057,48.3323,32.9178,-23.7477,229.8750,-26.6875,0.8594,0.00000000,0.00000000,0.00000000,
1.447324,0.0859,0.4504,0.8158,-0.3434,-0.1677,0.2518,0.2397,-0.5682,0.0057,48.3323,32.9178,-23.7477,229.8750,-26.6875,0.8594,0.00000000,0.00000000,0.00000000,
1.480444,0.0859,0.4504,0.8158,-0.3434,-0.1677,0.2518,0.2397,-0.5682,0.0057,48.3323,32.9178,-23.7477,230.0312,-27.0625,0.9375,0.00000000,0.00000000,0.00000000,
1.491102,0.0859,0.4504,0.8158,-0.3434,-0.1677,0.2518,0.2397,-0.5682,0.0057,47.9566,32.2325,-23.5951,230.0312,-27.0625,0.9375,0.00000000,0.00000000,0.00000000,
1.495655,0.0859,0.4504,0.8158,0.5320,-0.1260,-0.5470,0.2397,-0.5682,0.0057,47.9566,32.2325,-23.5951,230.0312,-27.0625,0.9375,0.00000000,0.00000000,0.00000000,
1.517892,0.0859,0.4504,0.8158,0.5320,-0.1260,-0.5470,-0.2602,0.0797,0.0187,47.9566,32.2325,-23.5951,230.0312,-27.0625,0.9375,0.00000000,0.00000000,0.00000000,
1.520977,0.1191,0.4277,0.9592,0.5320,-0.1260,-0.5470,-0.2602,0.0797,0.0187,47.9566,32.2325,-23.5951,230.0312,-27.0625,0.9375,0.00000000,0.00000000,0.00000000,
1.524016,0.1191,0.4277,0.9592,0.5320,-0.1260,-0.5470,-0.2602,0.0797,0.0187,47.9566,32.2325,-23.5951,230.1875,-27.4844,0.9531,0.00000000,0.00000000,0.00000000,
1.549591,0.1191,0.4277,0.9592,0.5320,-0.1260,-0.5470,-0.2602,0.0797,0.0187,48.0267,33.5290,-22.6030,230.1875,-27.4844,0.9531,0.00000000,0.00000000,0.00000000,
1.558438,0.1191,0.4277,0.9592,0.8664,-0.3686,0.0287,-0.2602,0.0797,0.0187,48.0267,33.5290,-22.6030,230.1875,-27.4844,0.9531,0.00000000,0.00000000,0.00000000,
1.562027,0.1191,0.4277,0.9592,0.6752,-0.2634,-0.0096,-0.2602,0.0797,0.0187,48.0267,33.5290,-22.6030,230.1875,-27.4844,0.9531,0.00000000,0.00000000,0.00000000,
1.565098,0.1191,0.4277,0.9592,0.6752,-0.2634,-0.0096,-0.2602,0.0797,0.0187,48.0267,33.5290,-22.6030,230.3125,-27.8125,0.9844,0.00000000,0.00000000,0.00000000,
1.583415,0.1191,0.4277,0.9592,0.6752,-0.2634,-0.0096,-0.1814,-0.5676,0.2022,48.0267,33.5290,-22.6030,230.3125,-27.8125,0.9844,0.00000000,0.00000000,0.00000000,
1.586736,0.1043,0.4643,0.9849,0.6752,-0.2634,-0.0096,-0.1814,-0.5676,0.2022,48.0267,33.5290,-22.6030,230.3125,-27.8125,0.9844,0.00000000,0.00000000,0.00000000,
1.605535,0.1043,0.4643,0.9849,0.6752,-0.2634,-0.0096,-0.1814,-0.5676,0.2022,48.0267,33.5290,-22.6030,230.3438,-28.0000,1.0469,0.00000000,0.00000000,0.00000000,
1.609532,0.1043,0.4643,0.9849,0.6752,-0.2634,-0.0096,-0.1814,-0.5676,0.2022,43.7561,33.4710,-22.4585,230.3438,-28.0000,1.0469,0.00000000,0.00000000,0.00000000,
1.615456,0.1043,0.4643,0.9849,-0.1470,0.1824,1.2888,-0.1814,-0.5676,0.2022,43.7561,33.4710,-22.4585,230.3438,-28.0000,1.0469,0.00000000,0.00000000,0.00000000,
1.623202,0.1043,0.4643,0.9849,-0.1470,0.1824,1.2888,0.2913,-2.0109,0.6947,43.7561,33.4710,-22.4585,230.3438,-28.0000,1.0469,0.00000000,0.00000000,0.00000000,
1.643935,0.2995,0.4740,0.7681,-0.1470,0.1824,1.2888,0.2913,-2.0109,0.6947,43.7561,33.4710,-22.4585,230.3438,-28.0000,1.0469,0.00000000,0.00000000,0.00000000,
1.647076,0.2995,0.4740,0.7681,-0.1470,0.1824,1.2888,0.2913,-2.0109,0.6947,43.7561,33.4710,-22.4585,230.0938,-27.7344,0.4531,0.00000000,0.00000000,0.00000000,
1.676990,0.2995,0.4740,0.7681,-0.0357,-0.0108,-0.5131,0.2913,-2.0109,0.6947,43.7561,33.4710,-22.4585,230.0938,-27.7344,0.4531,0.00000000,0.00000000,0.00000000,
1.681054,0.2995,0.4740,0.7681,-0.5011,0.1853,-0.4743,0.2913,-2.0109,0.6947,43.7561,33.4710,-22.4585,230.0938,-27.7344,0.4531,0.00000000,0.00000000,0.00000000,
1.690496,0.2995,0.4740,0.7681,-0.5011,0.1853,-0.4743,0.2913,-2.0109,0.6947,43.7561,33.4710,-22.4585,233.3125,-26.9531,-0.2656,0.00000000,0.00000000,0.00000000,
1.693925,0.2995,0.4740,0.7681,-0.5011,0.1853,-0.4743,0.2913,-2.0109,0.6947,40.1863,33.9347,-21.4413,233.3125,-26.9531,-0.2656,0.00000000,0.00000000,0.00000000,
1.707760,0.2995,0.4740,0.7681,-0.5011,0.1853,-0.4743,-0.7785,-0.2144,0.5679,40.1863,33.9347,-21.4413,233.3125,-26.9531,-0.2656,0.00000000,0.00000000,0.00000000,
1.716489,0.1340,0.3926,0.8568,-0.5011,0.1853,-0.4743,-0.7785,-0.2144,0.5679,40.1863,33.9347,-21.4413,233.3125,-26.9531,-0.2656,0.00000000,0.00000000,0.00000000,
1.730638,0.1340,0.3926,0.8568,-0.5011,0.1853,-0.4743,-0.7785,-0.2144,0.5679,40.1863,33.9347,-21.4413,234.0000,-27.5781,1.0469,0.00000000,0.00000000,0.00000000,
1.739711,0.1340,0.3926,0.8568,0.3613,0.6171,-1.1996,-0.7785,-0.2144,0.5679,40.1863,33.9347,-21.4413,234.0000,-27.5781,1.0469,0.00000000,0.00000000,0.00000000,
1.749591,0.1340,0.3926,0.8568,0.3613,0.6171,-1.1996,-0.7785,-0.2144,0.5679,40.5838,36.8486,-22.2945,234.0000,-27.5781,1.0469,0.00000000,0.00000000,0.00000000,
1.771946,0.1340,0.3926,0.8568,0.3613,0.6171,-1.1996,-0.7785,-0.2144,0.5679,40.5838,36.8486,-22.2945,233.6250,-27.5938,0.4375,0.00000000,0.00000000,0.00000000,
1.785708,0.2392,0.3368,0.9637,0.3613,0.6171,-1.1996,-0.7785,-0.2144,0.5679,40.5838,36.8486,-22.2945,233.6250,-27.5938,0.4375,0.00000000,0.00000000,0.00000000,
1.789962,0.2392,0.3368,0.9637,0.3613,0.6171,-1.1996,-0.8182,-0.0857,0.4872,40.5838,36.8486,-22.2945,233.6250,-27.5938,0.4375,0.00000000,0.00000000,0.00000000,
1.798031,0.2392,0.3368,0.9637,-0.8675,0.2758,-0.0701,-0.8182,-0.0857,0.4872,40.5838,36.8486,-22.2945,233.6250,-27.5938,0.4375,0.00000000,0.00000000,0.00000000,
1.801144,0.2392,0.3368,0.9637,-1.0169,0.4964,-0.1051,-0.8182,-0.0857,0.4872,40.5838,36.8486,-22.2945,233.6250,-27.5938,0.4375,0.00000000,0.00000000,0.00000000,
1.808800,0.2392,0.3368,0.9637,-1.0169,0.4964,-0.1051,-0.8182,-0.0857,0.4872,40.2645,38.8612,-21.7144,233.6250,-27.5938,0.4375,0.00000000,0.00000000,0.00000000,
1.813356,0.2392,0.3368,0.9637,-1.0169,0.4964,-0.1051,-0.8182,-0.0857,0.4872,40.2645,38.8612,-21.7144,233.7969,-26.4688,0.6875,0.00000000,0.00000000,0.00000000,
1.824204,0.2392,0.3368,0.9637,-1.0169,0.4964,-0.1051,-0.2033,0.1784,0.1198,40.2645,38.8612,-21.7144,233.7969,-26.4688,0.6875,0.00000000,0.00000000,0.00000000,
1.844773,0.1993,0.3088,1.0516,-1.0169,0.4964,-0.1051,-0.2033,0.1784,0.1198,40.2645,38.8612,-21.7144,233.7969,-26.4688,0.6875,0.00000000,0.00000000,0.00000000,
1.858904,0.1993,0.3088,1.0516,0.0400,-0.0715,0.7760,-0.2033,0.1784,0.1198,40.2645,38.8612,-21.7144,233.7969,-26.4688,0.6875,0.00000000,0.00000000,0.00000000,
1.862828,0.1993,0.3088,1.0516,0.0400,-0.0715,0.7760,-0.2033,0.1784,0.1198,40.2645,38.8612,-21.7144,233.7656,-25.8594,1.6406,0.00000000,0.00000000,0.00000000,
1.889746,0.1993,0.3088,1.0516,0.0400,-0.0715,0.7760,-0.2033,0.1784,0.1198,41.9075,38.7011,-21.9818,233.7656,-25.8594,1.6406,0.00000000,0.00000000,0.00000000,
1.895827,0.1993,0.3088,1.0516,0.0400,-0.0715,0.7760,-0.2033,0.1784,0.1198,41.9075,38.7011,-21.9818,233.1406,-26.0625,4.5000,0.00000000,0.00000000,0.00000000,
1.906908,0.1993,0.3088,1.0516,0.0400,-0.0715,0.7760,1.1016,1.5298,0.1612,41.9075,38.7011,-21.9818,233.1406,-26.0625,4.5000,0.00000000,0.00000000,0.00000000,
1.917937,0.1993,0.3088,1.0516,-0.1568,-0.3154,1.4039,1.1016,1.5298,0.1612,41.9075,38.7011,-21.9818,233.1406,-26.0625,4.5000,0.00000000,0.00000000,0.00000000,
1.920789,0.1446,0.3607,1.0064,-0.1568,-0.3154,1.4039,1.1016,1.5298,0.1612,41.9075,38.7011,-21.9818,233.1406,-26.0625,4.5000,0.00000000,0.00000000,0.00000000,
1.922674,0.1446,0.3607,1.0064,0.4784,-0.8424,1.4613,1.1016,1.5298,0.1612,41.9075,38.7011,-21.9818,233.1406,-26.0625,4.5000,0.00000000,0.00000000,0.00000000,
1.939561,0.1446,0.3607,1.0064,0.4784,-0.8424,1.4613,1.1016,1.5298,0.1612,41.9075,38.7011,-21.9818,232.5781,-26.5781,9.7812,0.00000000,0.00000000,0.00000000,
1.950053,0.1446,0.3607,1.0064,0.4784,-0.8424,1.4613,1.1016,1.5298,0.1612,46.6026,34.1025,-22.0561,232.5781,-26.5781,9.7812,0.00000000,0.00000000,0.00000000,
1.976126,0.1446,0.3607,1.0064,0.5900,-1.2459,0.8471,1.1016,1.5298,0.1612,46.6026,34.1025,-22.0561,232.5781,-26.5781,9.7812,0.00000000,0.00000000,0.00000000,
1.980615,0.1446,0.3607,1.0064,0.5900,-1.2459,0.8471,1.1016,1.5298,0.1612,46.6026,34.1025,-22.0561,231.6250,-25.3125,12.6719,0.00000000,0.00000000,0.00000000,
1.985460,0.0948,0.5085,0.5344,0.5900,-1.2459,0.8471,1.1016,1.5298,0.1612,46.6026,34.1025,-22.0561,231.6250,-25.3125,12.6719,0.00000000,0.00000000,0.00000000,
1.988413,0.0948,0.5085,0.5344,0.5900,-1.2459,0.8471,2.2076,1.6064,0.1751,46.6026,34.1025,-22.0561,231.6250,-25.3125,12.6719,0.00000000,0.00000000,0.00000000,
2.012996,0.0948,0.5085,0.5344,0.5900,-1.2459,0.8471,2.2076,1.6064,0.1751,50.8359,29.8354,-22.7201,231.6250,-25.3125,12.6719,0.00000000,0.00000000,0.00000000,
2.023082,0.0948,0.5085,0.5344,0.5900,-1.2459,0.8471,2.2076,1.6064,0.1751,50.8359,29.8354,-22.7201,230.6406,-22.6094,11.9531,0.00000000,0.00000000,0.00000000,
2.026205,0.0948,0.5085,0.5344,0.5900,-1.2459,0.8471,-0.6480,0.5720,-0.3225,50.8359,29.8354,-22.7201,230.6406,-22.6094,11.9531,0.00000000,0.00000000,0.00000000,
2.040327,0.0948,0.5085,0.5344,0.6453,-0.1466,-3.2352,-0.6480,0.5720,-0.3225,50.8359,29.8354,-22.7201,230.6406,-22.6094,11.9531,0.00000000,0.00000000,0.00000000,
2.043802,0.0948,0.5085,0.5344,0.8028,0.2402,-3.3671,-0.6480,0.5720,-0.3225,50.8359,29.8354,-22.7201,230.6406,-22.6094,11.9531,0.00000000,0.00000000,0.00000000,
2.046373,-0.0093,0.4949,0.8320,0.8028,0.2402,-3.3671,-0.6480,0.5720,-0.3225,50.8359,29.8354,-22.7201,230.6406,-22.6094,11.9531,0.00000000,0.00000000,0.00000000,
2.063444,-0.0093,0.4949,0.8320,0.8028,0.2402,-3.3671,-0.6480,0.5720,-0.3225,50.8359,29.8354,-22.7201,229.6719,-20.3438,12.4531,0.00000000,0.00000000,0.00000000,
2.089784,-0.0093,0.4949,0.8320,0.8028,0.2402,-3.3671,-0.6480,0.5720,-0.3225,51.6555,32.8750,-23.2089,229.6719,-20.3438,12.4531,0.00000000,0.00000000,0.00000000,
2.099802,-0.0093,0.4949,0.8320,-0.1966,0.6387,-0.5930,-0.6480,0.5720,-0.3225,51.6555,32.8750,-23.2089,229.6719,-20.3438,12.4531,0.00000000,0.00000000,0.00000000,
2.108979,-0.0093,0.4949,0.8320,-0.1966,0.6387,-0.5930,-0.6480,0.5720,-0.3225,51.6555,32.8750,-23.2089,229.1562,-18.8750,13.5781,0.00000000,0.00000000,0.00000000,
2.113674,-0.0093,0.4949,0.8320,-0.1966,0.6387,-0.5930,-1.3704,-0.7512,-0.2283,51.6555,32.8750,-23.2089,229.1562,-18.8750,13.5781,0.00000000,0.00000000,0.00000000,
2.122770,0.0335,0.3728,1.0001,-0.1966,0.6387,-0.5930,-1.3704,-0.7512,-0.2283,51.6555,32.8750,-23.2089,229.1562,-18.8750,13.5781,0.00000000,0.00000000,0.00000000,
2.146944,0.0335,0.3728,1.0001,-0.1966,0.6387,-0.5930,-1.3704,-0.7512,-0.2283,51.6555,32.8750,-23.2089,228.0625,-19.7656,10.7812,0.00000000,0.00000000,0.00000000,
2.150381,0.0335,0.3728,1.0001,-0.1966,0.6387,-0.5930,-1.3704,-0.7512,-0.2283,47.8554,35.8252,-23.1031,228.0625,-19.7656,10.7812,0.00000000,0.00000000,0.00000000,
2.159942,0.0335,0.3728,1.0001,-0.3959,-0.2275,0.3549,-1.3704,-0.7512,-0.2283,47.8554,35.8252,-23.1031,228.0625,-19.7656,10.7812,0.00000000,0.00000000,0.00000000,
2.163748,0.0335,0.3728,1.0001,-0.9757,0.0058,0.3044,-1.3704,-0.7512,-0.2283,47.8554,35.8252,-23.1031,228.0625,-19.7656,10.7812,0.00000000,0.00000000,0.00000000,
2.180133,0.1098,0.4030,0.9842,-0.9757,0.0058,0.3044,-1.3704,-0.7512,-0.2283,47.8554,35.8252,-23.1031,228.0625,-19.7656,10.7812,0.00000000,0.00000000,0.00000000,
2.190424,0.1098,0.4030,0.9842,-0.9757,0.0058,0.3044,-0.5671,-1.5123,0.0613,47.8554,35.8252,-23.1031,228.0625,-19.7656,10.7812,0.00000000,0.00000000,0.00000000,
2.194359,0.1098,0.4030,0.9842,-0.9757,0.0058,0.3044,-0.5671,-1.5123,0.0613,47.8554,35.8252,-23.1031,226.5781,-23.0312,7.0781,0.00000000,0.00000000,0.00000000,
2.208900,0.1098,0.4030,0.9842,-0.9757,0.0058,0.3044,-0.5671,-1.5123,0.0613,45.2969,36.8018,-22.7480,226.5781,-23.0312,7.0781,0.00000000,0.00000000,0.00000000,
2.223276,0.1098,0.4030,0.9842,0.0777,0.3784,1.2008,-0.5671,-1.5123,0.0613,45.2969,36.8018,-22.7480,226.5781,-23.0312,7.0781,0.00000000,0.00000000,0.00000000,
2.227142,0.1098,0.4030,0.9842,0.0777,0.3784,1.2008,0.1313,-0.8003,-0.0981,45.2969,36.8018,-22.7480,226.5781,-23.0312,7.0781,0.00000000,0.00000000,0.00000000,
2.229981,0.1098,0.4030,0.9842,0.0777,0.3784,1.2008,0.1313,-0.8003,-0.0981,45.2969,36.8018,-22.7480,224.9062,-28.5938,3.6719,0.00000000,0.00000000,0.00000000,
2.247929,0.1442,0.3307,0.9153,0.0777,0.3784,1.2008,0.1313,-0.8003,-0.0981,45.2969,36.8018,-22.7480,224.9062,-28.5938,3.6719,0.00000000,0.00000000,0.00000000,
2.271703,0.1442,0.3307,0.9153,0.0777,0.3784,1.2008,0.1313,-0.8003,-0.0981,45.2969,36.8018,-22.7480,223.5469,-32.3906,0.2188,0.00000000,0.00000000,0.00000000,
2.280789,0.1442,0.3307,0.9153,-0.8144,-0.4477,0.1427,0.1313,-0.8003,-0.0981,45.2969,36.8018,-22.7480,223.5469,-32.3906,0.2188,0.00000000,0.00000000,0.00000000,
2.284766,0.1442,0.3307,0.9153,-1.3868,-0.4027,0.2486,0.1313,-0.8003,-0.0981,45.2969,36.8018,-22.7480,223.5469,-32.3906,0.2188,0.00000000,0.00000000,0.00000000,
2.294715,0.1442,0.3307,0.9153,-1.3868,-0.4027,0.2486,0.1313,-0.8003,-0.0981,41.5424,37.0498,-22.1344,223.5469,-32.3906,0.2188,0.00000000,0.00000000,0.00000000,
2.307607,0.1442,0.3307,0.9153,-1.3868,-0.4027,0.2486,-0.1673,-1.1910,0.4223,41.5424,37.0498,-22.1344,223.5469,-32.3906,0.2188,0.00000000,0.00000000,0.00000000,
2.314223,0.1442,0.3307,0.9153,-1.3868,-0.4027,0.2486,-0.1673,-1.1910,0.4223,41.5424,37.0498,-22.1344,224.2812,-29.7500,-0.8750,0.00000000,0.00000000,0.00000000,
2.322693,0.3439,0.3379,0.9739,-1.3868,-0.4027,0.2486,-0.1673,-1.1910,0.4223,41.5424,37.0498,-22.1344,224.2812,-29.7500,-0.8750,0.00000000,0.00000000,0.00000000,
2.340432,0.3439,0.3379,0.9739,0.2599,-0.1447,0.1118,-0.1673,-1.1910,0.4223,41.5424,37.0498,-22.1344,224.2812,-29.7500,-0.8750,0.00000000,0.00000000,0.00000000,
2.349059,0.3439,0.3379,0.9739,0.2599,-0.1447,0.1118,-0.1673,-1.1910,0.4223,40.1416,37.8626,-20.8432,224.2812,-29.7500,-0.8750,0.00000000,0.00000000,0.00000000,
2.357944,0.3439,0.3379,0.9739,0.2599,-0.1447,0.1118,-0.1673,-1.1910,0.4223,40.1416,37.8626,-20.8432,225.3906,-26.1562,-0.4531,0.00000000,0.00000000,0.00000000,
2.381960,0.4558,0.2862,0.8071,0.2599,-0.1447,0.1118,-0.1673,-1.1910,0.4223,40.1416,37.8626,-20.8432,225.3906,-26.1562,-0.4531,0.00000000,0.00000000,0.00000000,
2.391027,0.4558,0.2862,0.8071,0.2599,-0.1447,0.1118,0.0503,-0.7733,0.1320,40.1416,37.8626,-20.8432,225.3906,-26.1562,-0.4531,0.00000000,0.00000000,0.00000000,
2.397229,0.4558,0.2862,0.8071,0.2599,-0.1447,0.1118,0.0503,-0.7733,0.1320,40.1416,37.8626,-20.8432,226.0938,-23.4219,1.9219,0.00000000,0.00000000,0.00000000,
2.400447,0.4558,0.2862,0.8071,0.9361,-0.6929,0.9736,0.0503,-0.7733,0.1320,40.1416,37.8626,-20.8432,226.0938,-23.4219,1.9219,0.00000000,0.00000000,0.00000000,
2.403521,0.4558,0.2862,0.8071,0.5801,-0.7136,1.0760,0.0503,-0.7733,0.1320,40.1416,37.8626,-20.8432,226.0938,-23.4219,1.9219,0.00000000,0.00000000,0.00000000,
2.410442,0.4558,0.2862,0.8071,0.5801,-0.7136,1.0760,0.0503,-0.7733,0.1320,36.3988,37.1866,-19.7929,226.0938,-23.4219,1.9219,0.00000000,0.00000000,0.00000000,
2.427864,0.4558,0.2862,0.8071,0.5801,-0.7136,1.0760,0.0312,-1.8055,0.0115,36.3988,37.1866,-19.7929,226.0938,-23.4219,1.9219,0.00000000,0.00000000,0.00000000,
2.439446,0.4558,0.2862,0.8071,0.5801,-0.7136,1.0760,0.0312,-1.8055,0.0115,36.3988,37.1866,-19.7929,226.6875,-21.9375,5.5000,0.00000000,0.00000000,0.00000000,
2.448662,0.7611,0.1328,0.8552,0.5801,-0.7136,1.0760,0.0312,-1.8055,0.0115,36.3988,37.1866,-19.7929,226.6875,-21.9375,5.5000,0.00000000,0.00000000,0.00000000,
2.462042,0.7611,0.1328,0.8552,1.2920,-1.1119,-1.1209,0.0312,-1.8055,0.0115,36.3988,37.1866,-19.7929,226.6875,-21.9375,5.5000,0.00000000,0.00000000,0.00000000,
2.480419,0.7611,0.1328,0.8552,1.2920,-1.1119,-1.1209,0.0312,-1.8055,0.0115,36.3988,37.1866,-19.7929,227.3438,-22.0156,6.1250,0.00000000,0.00000000,0.00000000,
2.489829,0.7611,0.1328,0.8552,1.2920,-1.1119,-1.1209,0.0312,-1.8055,0.0115,30.0362,37.3635,-16.3334,227.3438,-22.0156,6.1250,0.00000000,0.00000000,0.00000000,
2.508524,0.7611,0.1328,0.8552,1.2920,-1.1119,-1.1209,0.2589,-2.4930,-0.0076,30.0362,37.3635,-16.3334,227.3438,-22.0156,6.1250,0.00000000,0.00000000,0.00000000,
2.522904,0.5778,0.0835,0.6520,1.2920,-1.1119,-1.1209,0.2589,-2.4930,-0.0076,30.0362,37.3635,-16.3334,227.3438,-22.0156,6.1250,0.00000000,0.00000000,0.00000000,
2.526603,0.5778,0.0835,0.6520,3.6462,-2.4230,0.5030,0.2589,-2.4930,-0.0076,30.0362,37.3635,-16.3334,227.3438,-22.0156,6.1250,0.00000000,0.00000000,0.00000000,
2.529181,0.5778,0.0835,0.6520,2.7267,-2.4480,1.0930,0.2589,-2.4930,-0.0076,30.0362,37.3635,-16.3334,227.3438,-22.0156,6.1250,0.00000000,0.00000000,0.00000000,
2.531699,0.5778,0.0835,0.6520,2.7267,-2.4480,1.0930,0.2589,-2.4930,-0.0076,30.0362,37.3635,-16.3334,227.8906,-22.3906,8.0156,0.00000000,0.00000000,0.00000000,
2.548635,0.5778,0.0835,0.6520,2.7267,-2.4480,1.0930,0.2589,-2.4930,-0.0076,23.2866,36.4447,-11.8613,227.8906,-22.3906,8.0156,0.00000000,0.00000000,0.00000000,
2.563989,0.5778,0.0835,0.6520,2.7267,-2.4480,1.0930,0.2589,-2.4930,-0.0076,23.2866,36.4447,-11.8613,227.6250,-22.2188,11.6406,0.00000000,0.00000000,0.00000000,
2.582156,0.5778,0.0835,0.6520,-1.6261,-2.5802,-0.4013,0.2589,-2.4930,-0.0076,23.2866,36.4447,-11.8613,227.6250,-22.2188,11.6406,0.00000000,0.00000000,0.00000000,
2.586621,0.3857,0.1286,0.4713,-1.6261,-2.5802,-0.4013,0.2589,-2.4930,-0.0076,23.2866,36.4447,-11.8613,227.6250,-22.2188,11.6406,0.00000000,0.00000000,0.00000000,
2.602224,0.3857,0.1286,0.4713,-1.6261,-2.5802,-0.4013,0.1840,-3.5620,0.7571,23.2866,36.4447,-11.8613,227.6250,-22.2188,11.6406,0.00000000,0.00000000,0.00000000,
2.609035,0.3857,0.1286,0.4713,-1.6261,-2.5802,-0.4013,0.1840,-3.5620,0.7571,23.2866,36.4447,-11.8613,227.0938,-21.1562,13.6250,0.00000000,0.00000000,0.00000000,
2.611824,0.3857,0.1286,0.4713,-1.6261,-2.5802,-0.4013,0.1840,-3.5620,0.7571,16.7152,39.3439,-3.1466,227.0938,-21.1562,13.6250,0.00000000,0.00000000,0.00000000,
2.631148,0.3857,0.1286,0.4713,-1.6261,-2.5802,-0.4013,-0.2859,-3.8127,1.9022,16.7152,39.3439,-3.1466,227.0938,-21.1562,13.6250,0.00000000,0.00000000,0.00000000,
2.641421,0.3857,0.1286,0.4713,-4.3588,-1.7600,-0.6863,-0.2859,-3.8127,1.9022,16.7152,39.3439,-3.1466,227.0938,-21.1562,13.6250,0.00000000,0.00000000,0.00000000,
2.645183,0.3857,0.1286,0.4713,-5.1577,-0.9864,0.4886,-0.2859,-3.8127,1.9022,16.7152,39.3439,-3.1466,227.0938,-21.1562,13.6250,0.00000000,0.00000000,0.00000000,
2.647510,0.3857,0.1286,0.4713,-5.1577,-0.9864,0.4886,-0.2859,-3.8127,1.9022,16.7152,39.3439,-3.1466,227.1094,-21.1562,15.3906,0.00000000,0.00000000,0.00000000,
2.650224,0.5368,0.0879,0.6308,-5.1577,-0.9864,0.4886,-0.2859,-3.8127,1.9022,16.7152,39.3439,-3.1466,227.1094,-21.1562,15.3906,0.00000000,0.00000000,0.00000000,
2.689398,0.5368,0.0879,0.6308,-5.1577,-0.9864,0.4886,-0.2859,-3.8127,1.9022,16.7152,39.3439,-3.1466,227.2031,-21.4062,17.4688,0.00000000,0.00000000,0.00000000,
2.694049,0.5368,0.0879,0.6308,-5.1577,-0.9864,0.4886,-0.2859,-3.8127,1.9022,12.8955,46.2360,6.5612,227.2031,-21.4062,17.4688,0.00000000,0.00000000,0.00000000,
2.701786,0.5368,0.0879,0.6308,-3.5719,-0.3218,3.1508,-0.2859,-3.8127,1.9022,12.8955,46.2360,6.5612,227.2031,-21.4062,17.4688,0.00000000,0.00000000,0.00000000,
2.710985,0.5368,0.0879,0.6308,-3.5719,-0.3218,3.1508,-0.0464,-2.9283,2.6267,12.8955,46.2360,6.5612,227.2031,-21.4062,17.4688,0.00000000,0.00000000,0.00000000,
2.715416,1.0330,0.2405,0.7825,-3.5719,-0.3218,3.1508,-0.0464,-2.9283,2.6267,12.8955,46.2360,6.5612,227.2031,-21.4062,17.4688,0.00000000,0.00000000,0.00000000,
2.730758,1.0330,0.2405,0.7825,-3.5719,-0.3218,3.1508,-0.0464,-2.9283,2.6267,12.8955,46.2360,6.5612,228.1875,-21.4062,21.8906,0.00000000,0.00000000,0.00000000,
2.749498,1.0330,0.2405,0.7825,-3.5719,-0.3218,3.1508,-0.0464,-2.9283,2.6267,12.2705,53.0123,12.4338,228.1875,-21.4062,21.8906,0.00000000,0.00000000,0.00000000,
2.763484,1.0330,0.2405,0.7825,0.1937,1.7112,5.7190,-0.0464,-2.9283,2.6267,12.2705,53.0123,12.4338,228.1875,-21.4062,21.8906,0.00000000,0.00000000,0.00000000,
2.767443,1.0330,0.2405,0.7825,0.1197,2.4575,5.9524,-0.0464,-2.9283,2.6267,12.2705,53.0123,12.4338,228.1875,-21.4062,21.8906,0.00000000,0.00000000,0.00000000,
2.775025,1.0330,0.2405,0.7825,0.1197,2.4575,5.9524,-0.0464,-2.9283,2.6267,12.2705,53.0123,12.4338,229.2812,-21.9219,26.8438,0.00000000,0.00000000,0.00000000,
2.783873,1.3472,0.3887,0.1516,0.1197,2.4575,5.9524,-0.0464,-2.9283,2.6267,12.2705,53.0123,12.4338,229.2812,-21.9219,26.8438,0.00000000,0.00000000,0.00000000,
2.791502,1.3472,0.3887,0.1516,0.1197,2.4575,5.9524,0.8429,-1.0056,2.3068,12.2705,53.0123,12.4338,229.2812,-21.9219,26.8438,0.00000000,0.00000000,0.00000000,
2.809524,1.3472,0.3887,0.1516,0.1197,2.4575,5.9524,0.8429,-1.0056,2.3068,14.1270,57.5726,13.7667,229.2812,-21.9219,26.8438,0.00000000,0.00000000,0.00000000,
2.813310,1.3472,0.3887,0.1516,0.1197,2.4575,5.9524,0.8429,-1.0056,2.3068,14.1270,57.5726,13.7667,230.3125,-22.4844,32.6250,0.00000000,0.00000000,0.00000000,
2.822302,1.3472,0.3887,0.1516,3.6785,4.9161,0.6860,0.8429,-1.0056,2.3068,14.1270,57.5726,13.7667,230.3125,-22.4844,32.6250,0.00000000,0.00000000,0.00000000,
2.830313,1.3472,0.3887,0.1516,3.6785,4.9161,0.6860,0.5949,-0.1866,0.9675,14.1270,57.5726,13.7667,230.3125,-22.4844,32.6250,0.00000000,0.00000000,0.00000000,
2.849618,1.2614,0.1350,-0.0037,3.6785,4.9161,0.6860,0.5949,-0.1866,0.9675,14.1270,57.5726,13.7667,230.3125,-22.4844,32.6250,0.00000000,0.00000000,0.00000000,
2.858015,1.2614,0.1350,-0.0037,3.6785,4.9161,0.6860,0.5949,-0.1866,0.9675,14.1270,57.5726,13.7667,230.2812,-21.7500,40.6250,0.00000000,0.00000000,0.00000000,
2.884261,1.2614,0.1350,-0.0037,3.3059,3.2013,-2.1184,0.5949,-0.1866,0.9675,14.1270,57.5726,13.7667,230.2812,-21.7500,40.6250,0.00000000,0.00000000,0.00000000,
2.887613,1.2614,0.1350,-0.0037,3.3073,3.2013,-2.3810,0.5949,-0.1866,0.9675,14.1270,57.5726,13.7667,230.2812,-21.7500,40.6250,0.00000000,0.00000000,0.00000000,
2.889641,1.2614,0.1350,-0.0037,3.3073,3.2013,-2.3810,0.5949,-0.1866,0.9675,14.6086,59.0352,12.5051,230.2812,-21.7500,40.6250,0.00000000,0.00000000,0.00000000,
2.897007,1.2614,0.1350,-0.0037,3.3073,3.2013,-2.3810,0.5949,-0.1866,0.9675,14.6086,59.0352,12.5051,229.3594,-19.2969,49.6562,0.00000000,0.00000000,0.00000000,
2.912226,1.2614,0.1350,-0.0037,3.3073,3.2013,-2.3810,-0.1305,0.7354,0.1123,14.6086,59.0352,12.5051,229.3594,-19.2969,49.6562,0.00000000,0.00000000,0.00000000,
2.917004,1.0104,-0.0419,0.0355,3.3073,3.2013,-2.3810,-0.1305,0.7354,0.1123,14.6086,59.0352,12.5051,229.3594,-19.2969,49.6562,0.00000000,0.00000000,0.00000000,
2.938135,1.0104,-0.0419,0.0355,3.3073,3.2013,-2.3810,-0.1305,0.7354,0.1123,14.6086,59.0352,12.5051,226.6250,-14.7656,59.5625,0.00000000,0.00000000,0.00000000,
2.943082,1.0104,-0.0419,0.0355,1.0273,1.0156,-1.7286,-0.1305,0.7354,0.1123,14.6086,59.0352,12.5051,226.6250,-14.7656,59.5625,0.00000000,0.00000000,0.00000000,
2.949753,1.0104,-0.0419,0.0355,1.0273,1.0156,-1.7286,-0.1305,0.7354,0.1123,15.0658,59.3520,11.1087,226.6250,-14.7656,59.5625,0.00000000,0.00000000,0.00000000,
2.952910,1.0104,-0.0419,0.0355,1.0273,1.0156,-1.7286,0.0085,0.0474,0.0817,15.0658,59.3520,11.1087,226.6250,-14.7656,59.5625,0.00000000,0.00000000,0.00000000,
2.980418,1.0104,-0.0419,0.0355,1.0273,1.0156,-1.7286,0.0085,0.0474,0.0817,15.0658,59.3520,11.1087,222.2031,-9.2344,69.2656,0.00000000,0.00000000,0.00000000,
2.984331,0.9569,-0.2500,0.0969,1.0273,1.0156,-1.7286,0.0085,0.0474,0.0817,15.0658,59.3520,11.1087,222.2031,-9.2344,69.2656,0.00000000,0.00000000,0.00000000,
3.004183,0.9569,-0.2500,0.0969,0.3565,-0.0795,-1.9018,0.0085,0.0474,0.0817,15.0658,59.3520,11.1087,222.2031,-9.2344,69.2656,0.00000000,0.00000000,0.00000000,
3.007352,0.9569,-0.2500,0.0969,0.3665,0.0220,-1.8854,0.0085,0.0474,0.0817,15.0658,59.3520,11.1087,222.2031,-9.2344,69.2656,0.00000000,0.00000000,0.00000000,
3.010251,0.9569,-0.2500,0.0969,0.3665,0.0220,-1.8854,0.0085,0.0474,0.0817,15.1555,59.6988,10.9304,222.2031,-9.2344,69.2656,0.00000000,0.00000000,0.00000000,
3.021778,0.9569,-0.2500,0.0969,0.3665,0.0220,-1.8854,0.0085,0.0474,0.0817,15.1555,59.6988,10.9304,215.8281,-3.0625,76.2344,0.00000000,0.00000000,0.00000000,
3.034531,0.9569,-0.2500,0.0969,0.3665,0.0220,-1.8854,0.2224,-0.3545,0.5561,15.1555,59.6988,10.9304,215.8281,-3.0625,76.2344,0.00000000,0.00000000,0.00000000,
3.055092,1.0131,-0.3746,-0.0258,0.3665,0.0220,-1.8854,0.2224,-0.3545,0.5561,15.1555,59.6988,10.9304,215.8281,-3.0625,76.2344,0.00000000,0.00000000,0.00000000,
3.062641,1.0131,-0.3746,-0.0258,0.3665,0.0220,-1.8854,0.2224,-0.3545,0.5561,15.1555,59.6988,10.9304,208.9531,1.7500,78.7969,0.00000000,0.00000000,0.00000000,
3.066203,1.0131,-0.3746,-0.0258,-0.2107,-1.9252,-1.0414,0.2224,-0.3545,0.5561,15.1555,59.6988,10.9304,208.9531,1.7500,78.7969,0.00000000,0.00000000,0.00000000,
3.089445,1.0131,-0.3746,-0.0258,-0.2107,-1.9252,-1.0414,0.2224,-0.3545,0.5561,15.2007,60.9245,12.9889,208.9531,1.7500,78.7969,0.00000000,0.00000000,0.00000000,
3.105443,1.0131,-0.3746,-0.0258,-0.2107,-1.9252,-1.0414,0.2224,-0.3545,0.5561,15.2007,60.9245,12.9889,203.3594,4.8125,79.3906,0.00000000,0.00000000,0.00000000,
3.115413,1.0131,-0.3746,-0.0258,-0.2107,-1.9252,-1.0414,0.4455,-1.4577,0.9318,15.2007,60.9245,12.9889,203.3594,4.8125,79.3906,0.00000000,0.00000000,0.00000000,
3.118551,1.0039,-0.2137,0.2068,-0.2107,-1.9252,-1.0414,0.4455,-1.4577,0.9318,15.2007,60.9245,12.9889,203.3594,4.8125,79.3906,0.00000000,0.00000000,0.00000000,
3.125511,1.0039,-0.2137,0.2068,0.5114,-1.6616,-2.2549,0.4455,-1.4577,0.9318,15.2007,60.9245,12.9889,203.3594,4.8125,79.3906,0.00000000,0.00000000,0.00000000,
3.128995,1.0039,-0.2137,0.2068,0.4996,-1.2918,-1.6098,0.4455,-1.4577,0.9318,15.2007,60.9245,12.9889,203.3594,4.8125,79.3906,0.00000000,0.00000000,0.00000000,
3.146957,1.0039,-0.2137,0.2068,0.4996,-1.2918,-1.6098,0.4455,-1.4577,0.9318,15.2007,60.9245,12.9889,201.0312,6.2500,78.4062,0.00000000,0.00000000,0.00000000,
3.150328,1.0039,-0.2137,0.2068,0.4996,-1.2918,-1.6098,0.4455,-1.4577,0.9318,16.6441,63.6908,16.4360,201.0312,6.2500,78.4062,0.00000000,0.00000000,0.00000000,
3.157433,1.0039,-0.2137,0.2068,0.4996,-1.2918,-1.6098,0.5442,-1.8351,0.8953,16.6441,63.6908,16.4360,201.0312,6.2500,78.4062,0.00000000,0.00000000,0.00000000,
3.183183,1.2046,0.0170,0.6356,0.4996,-1.2918,-1.6098,0.5442,-1.8351,0.8953,16.6441,63.6908,16.4360,201.0312,6.2500,78.4062,0.00000000,0.00000000,0.00000000,
3.186245,1.2046,0.0170,0.6356,0.5038,1.1598,4.3657,0.5442,-1.8351,0.8953,16.6441,63.6908,16.4360,201.0312,6.2500,78.4062,0.00000000,0.00000000,0.00000000,
3.188073,1.2046,0.0170,0.6356,0.5038,1.1598,4.3657,0.5442,-1.8351,0.8953,16.6441,63.6908,16.4360,201.1875,6.6562,76.5625,0.00000000,0.00000000,0.00000000,
3.208974,1.2046,0.0170,0.6356,0.5038,1.1598,4.3657,0.5442,-1.8351,0.8953,17.4849,64.7095,17.3892,201.1875,6.6562,76.5625,0.00000000,0.00000000,0.00000000,
3.230246,1.2046,0.0170,0.6356,0.5038,1.1598,4.3657,0.5442,-1.8351,0.8953,17.4849,64.7095,17.3892,201.1250,6.9375,75.3438,0.00000000,0.00000000,0.00000000,
3.238979,1.2046,0.0170,0.6356,0.5038,1.1598,4.3657,1.8362,-0.8164,0.4182,17.4849,64.7095,17.3892,201.1250,6.9375,75.3438,0.00000000,0.00000000,0.00000000,
3.244761,1.2046,0.0170,0.6356,2.3857,2.7625,5.3396,1.8362,-0.8164,0.4182,17.4849,64.7095,17.3892,201.1250,6.9375,75.3438,0.00000000,0.00000000,0.00000000,
3.247797,1.3103,-0.0757,-0.9243,2.3857,2.7625,5.3396,1.8362,-0.8164,0.4182,17.4849,64.7095,17.3892,201.1250,6.9375,75.3438,0.00000000,0.00000000,0.00000000,
3.250195,1.3103,-0.0757,-0.9243,2.3707,2.8162,5.2224,1.8362,-0.8164,0.4182,17.4849,64.7095,17.3892,201.1250,6.9375,75.3438,0.00000000,0.00000000,0.00000000,
3.273103,1.3103,-0.0757,-0.9243,2.3707,2.8162,5.2224,1.8362,-0.8164,0.4182,17.4849,64.7095,17.3892,200.7344,7.4844,74.9375,0.00000000,0.00000000,0.00000000,
3.288861,1.3103,-0.0757,-0.9243,2.3707,2.8162,5.2224,1.8362,-0.8164,0.4182,16.6874,64.7038,17.3753,200.7344,7.4844,74.9375,0.00000000,0.00000000,0.00000000,
3.304972,1.3103,-0.0757,-0.9243,3.2696,1.6653,-10.4623,1.8362,-0.8164,0.4182,16.6874,64.7038,17.3753,200.7344,7.4844,74.9375,0.00000000,0.00000000,0.00000000,
3.313238,0.6954,-0.3232,-0.1100,3.2696,1.6653,-10.4623,1.8362,-0.8164,0.4182,16.6874,64.7038,17.3753,200.7344,7.4844,74.9375,0.00000000,0.00000000,0.00000000,
3.315763,0.6954,-0.3232,-0.1100,3.2696,1.6653,-10.4623,-1.2155,0.8897,-0.8282,16.6874,64.7038,17.3753,200.7344,7.4844,74.9375,0.00000000,0.00000000,0.00000000,
3.317927,0.6954,-0.3232,-0.1100,3.2696,1.6653,-10.4623,-1.2155,0.8897,-0.8282,16.6874,64.7038,17.3753,198.2344,8.9531,75.0781,0.00000000,0.00000000,0.00000000,
3.349033,0.6954,-0.3232,-0.1100,3.2696,1.6653,-10.4623,-1.2155,0.8897,-0.8282,14.6517,62.3873,17.4656,198.2344,8.9531,75.0781,0.00000000,0.00000000,0.00000000,
3.355242,0.6954,-0.3232,-0.1100,3.2696,1.6653,-10.4623,0.8575,-1.0918,-0.3457,14.6517,62.3873,17.4656,198.2344,8.9531,75.0781,0.00000000,0.00000000,0.00000000,
3.358066,0.6954,-0.3232,-0.1100,3.2696,1.6653,-10.4623,0.8575,-1.0918,-0.3457,14.6517,62.3873,17.4656,194.3438,10.8594,75.9062,0.00000000,0.00000000,0.00000000,
3.364470,0.6954,-0.3232,-0.1100,-2.9651,-0.8837,-1.5572,0.8575,-1.0918,-0.3457,14.6517,62.3873,17.4656,194.3438,10.8594,75.9062,0.00000000,0.00000000,0.00000000,
3.366984,0.6954,-0.3232,-0.1100,-2.9392,-0.9871,-1.1561,0.8575,-1.0918,-0.3457,14.6517,62.3873,17.4656,194.3438,10.8594,75.9062,0.00000000,0.00000000,0.00000000,
3.383514,0.3814,-0.7110,0.3319,-2.9392,-0.9871,-1.1561,0.8575,-1.0918,-0.3457,14.6517,62.3873,17.4656,194.3438,10.8594,75.9062,0.00000000,0.00000000,0.00000000,
3.395595,0.3814,-0.7110,0.3319,-2.9392,-0.9871,-1.1561,0.8575,-1.0918,-0.3457,14.6517,62.3873,17.4656,191.5000,12.9062,76.0156,0.00000000,0.00000000,0.00000000,
3.408926,0.3814,-0.7110,0.3319,-2.9392,-0.9871,-1.1561,0.8575,-1.0918,-0.3457,15.3861,62.6893,17.7015,191.5000,12.9062,76.0156,0.00000000,0.00000000,0.00000000,
3.423892,0.3814,-0.7110,0.3319,-5.2746,-4.5036,3.5332,0.8575,-1.0918,-0.3457,15.3861,62.6893,17.7015,191.5000,12.9062,76.0156,0.00000000,0.00000000,0.00000000,
3.434144,0.3814,-0.7110,0.3319,-5.2746,-4.5036,3.5332,1.5160,-0.5380,0.9090,15.3861,62.6893,17.7015,191.5000,12.9062,76.0156,0.00000000,0.00000000,0.00000000,
3.437484,0.3814,-0.7110,0.3319,-5.2746,-4.5036,3.5332,1.5160,-0.5380,0.9090,15.3861,62.6893,17.7015,187.3906,14.8594,75.0625,0.00000000,0.00000000,0.00000000,
3.443817,1.2774,-0.2285,0.2757,-5.2746,-4.5036,3.5332,1.5160,-0.5380,0.9090,15.3861,62.6893,17.7015,187.3906,14.8594,75.0625,0.00000000,0.00000000,0.00000000,
3.479346,1.2774,-0.2285,0.2757,-5.2746,-4.5036,3.5332,1.5160,-0.5380,0.9090,15.3861,62.6893,17.7015,181.0625,163.7188,73.7188,0.00000000,0.00000000,0.00000000,
3.483960,1.2774,-0.2285,0.2757,0.4951,-1.1582,3.7008,1.5160,-0.5380,0.9090,15.3861,62.6893,17.7015,181.0625,163.7188,73.7188,0.00000000,0.00000000,0.00000000,
3.486814,1.2774,-0.2285,0.2757,0.5865,-0.8145,3.2877,1.5160,-0.5380,0.9090,15.3861,62.6893,17.7015,181.0625,163.7188,73.7188,0.00000000,0.00000000,0.00000000,
3.489685,1.2774,-0.2285,0.2757,0.5865,-0.8145,3.2877,1.5160,-0.5380,0.9090,16.3359,63.5817,13.7142,181.0625,163.7188,73.7188,0.00000000,0.00000000,0.00000000,
3.516570,1.2774,-0.2285,0.2757,0.5865,-0.8145,3.2877,2.0776,0.1997,0.6136,16.3359,63.5817,13.7142,181.0625,163.7188,73.7188,0.00000000,0.00000000,0.00000000,
3.521867,1.6229,0.0860,-0.7201,0.5865,-0.8145,3.2877,2.0776,0.1997,0.6136,16.3359,63.5817,13.7142,181.0625,163.7188,73.7188,0.00000000,0.00000000,0.00000000,
3.525386,1.6229,0.0860,-0.7201,0.5865,-0.8145,3.2877,2.0776,0.1997,0.6136,16.3359,63.5817,13.7142,175.9531,163.0312,73.0312,0.00000000,0.00000000,0.00000000,
3.544694,1.6229,0.0860,-0.7201,7.1272,3.6227,-3.6111,2.0776,0.1997,0.6136,16.3359,63.5817,13.7142,175.9531,163.0312,73.0312,0.00000000,0.00000000,0.00000000,
3.548835,1.6229,0.0860,-0.7201,7.1272,3.6227,-3.6111,2.0776,0.1997,0.6136,15.8304,62.4132,12.1026,175.9531,163.0312,73.0312,0.00000000,0.00000000,0.00000000,
3.556371,1.6229,0.0860,-0.7201,7.1272,3.6227,-3.6111,-0.3400,0.5152,-1.0137,15.8304,62.4132,12.1026,175.9531,163.0312,73.0312,0.00000000,0.00000000,0.00000000,
3.562273,1.6229,0.0860,-0.7201,7.1272,3.6227,-3.6111,-0.3400,0.5152,-1.0137,15.8304,62.4132,12.1026,181.2344,15.3125,74.6406,0.00000000,0.00000000,0.00000000,
3.584743,0.7314,-0.4688,-0.1769,7.1272,3.6227,-3.6111,-0.3400,0.5152,-1.0137,15.8304,62.4132,12.1026,181.2344,15.3125,74.6406,0.00000000,0.00000000,0.00000000,
3.605892,0.7314,-0.4688,-0.1769,1.4832,0.3581,-8.1320,-0.3400,0.5152,-1.0137,15.8304,62.4132,12.1026,181.2344,15.3125,74.6406,0.00000000,0.00000000,0.00000000,
3.611453,0.7314,-0.4688,-0.1769,1.4832,0.3581,-8.1320,-0.3400,0.5152,-1.0137,15.8304,62.4132,12.1026,185.5000,13.0312,76.8438,0.00000000,0.00000000,0.00000000,
3.615735,0.7314,-0.4688,-0.1769,1.3716,-0.0085,-8.0255,-0.3400,0.5152,-1.0137,15.8304,62.4132,12.1026,185.5000,13.0312,76.8438,0.00000000,0.00000000,0.00000000,
3.619604,0.7314,-0.4688,-0.1769,1.3716,-0.0085,-8.0255,-0.3400,0.5152,-1.0137,15.0489,60.6819,12.1616,185.5000,13.0312,76.8438,0.00000000,0.00000000,0.00000000,
3.638137,0.7314,-0.4688,-0.1769,1.3716,-0.0085,-8.0255,-0.6626,-0.0057,-0.6235,15.0489,60.6819,12.1616,185.5000,13.0312,76.8438,0.00000000,0.00000000,0.00000000,
3.645076,0.6616,-0.1340,0.1151,1.3716,-0.0085,-8.0255,-0.6626,-0.0057,-0.6235,15.0489,60.6819,12.1616,185.5000,13.0312,76.8438,0.00000000,0.00000000,0.00000000,
3.648504,0.6616,-0.1340,0.1151,1.3716,-0.0085,-8.0255,-0.6626,-0.0057,-0.6235,15.0489,60.6819,12.1616,183.5938,167.7188,77.7188,0.00000000,0.00000000,0.00000000,
3.665284,0.6616,-0.1340,0.1151,-4.5727,-2.6347,1.9808,-0.6626,-0.0057,-0.6235,15.0489,60.6819,12.1616,183.5938,167.7188,77.7188,0.00000000,0.00000000,0.00000000,
3.688021,0.6616,-0.1340,0.1151,-4.5727,-2.6347,1.9808,-0.6626,-0.0057,-0.6235,15.0489,60.6819,12.1616,178.0000,166.7031,76.5312,0.00000000,0.00000000,0.00000000,
3.691992,0.6616,-0.1340,0.1151,-4.5727,-2.6347,1.9808,-0.6626,-0.0057,-0.6235,14.5424,60.4428,13.4517,178.0000,166.7031,76.5312,0.00000000,0.00000000,0.00000000,
3.717927,0.9801,0.0412,-0.0656,-4.5727,-2.6347,1.9808,-0.6626,-0.0057,-0.6235,14.5424,60.4428,13.4517,178.0000,166.7031,76.5312,0.00000000,0.00000000,0.00000000,
3.723714,0.9801,0.0412,-0.0656,-4.5727,-2.6347,1.9808,-0.8621,0.0779,-0.3645,14.5424,60.4428,13.4517,178.0000,166.7031,76.5312,0.00000000,0.00000000,0.00000000,
3.727074,0.9801,0.0412,-0.0656,-0.9140,3.1525,0.6798,-0.8621,0.0779,-0.3645,14.5424,60.4428,13.4517,178.0000,166.7031,76.5312,0.00000000,0.00000000,0.00000000,
3.730265,0.9801,0.0412,-0.0656,-0.9427,2.8584,0.6184,-0.8621,0.0779,-0.3645,14.5424,60.4428,13.4517,178.0000,166.7031,76.5312,0.00000000,0.00000000,0.00000000,
3.734153,0.9801,0.0412,-0.0656,-0.9427,2.8584,0.6184,-0.8621,0.0779,-0.3645,14.5424,60.4428,13.4517,171.9062,163.7031,73.6250,0.00000000,0.00000000,0.00000000,
3.749579,0.9801,0.0412,-0.0656,-0.9427,2.8584,0.6184,-0.8621,0.0779,-0.3645,13.8932,59.4139,14.0728,171.9062,163.7031,73.6250,0.00000000,0.00000000,0.00000000,
3.758190,0.9801,0.0412,-0.0656,-0.9427,2.8584,0.6184,-0.9993,0.1103,-0.6849,13.8932,59.4139,14.0728,171.9062,163.7031,73.6250,0.00000000,0.00000000,0.00000000,
3.772008,0.9801,0.0412,-0.0656,-0.9427,2.8584,0.6184,-0.9993,0.1103,-0.6849,13.8932,59.4139,14.0728,165.4688,18.3594,71.6406,0.00000000,0.00000000,0.00000000,
3.778074,1.1519,-0.0821,0.0458,-0.9427,2.8584,0.6184,-0.9993,0.1103,-0.6849,13.8932,59.4139,14.0728,165.4688,18.3594,71.6406,0.00000000,0.00000000,0.00000000,
3.788655,1.1519,-0.0821,0.0458,-1.5372,0.4397,-2.8592,-0.9993,0.1103,-0.6849,13.8932,59.4139,14.0728,165.4688,18.3594,71.6406,0.00000000,0.00000000,0.00000000,
3.809136,1.1519,-0.0821,0.0458,-1.5372,0.4397,-2.8592,-0.9993,0.1103,-0.6849,13.0264,57.9162,15.5535,165.4688,18.3594,71.6406,0.00000000,0.00000000,0.00000000,
3.813386,1.1519,-0.0821,0.0458,-1.5372,0.4397,-2.8592,-0.9993,0.1103,-0.6849,13.0264,57.9162,15.5535,161.5156,17.9219,71.9844,0.00000000,0.00000000,0.00000000,
3.839108,1.1519,-0.0821,0.0458,-1.5372,0.4397,-2.8592,-0.7428,-0.4147,-0.9853,13.0264,57.9162,15.5535,161.5156,17.9219,71.9844,0.00000000,0.00000000,0.00000000,
3.846687,1.2379,0.0170,0.0709,-1.5372,0.4397,-2.8592,-0.7428,-0.4147,-0.9853,13.0264,57.9162,15.5535,161.5156,17.9219,71.9844,0.00000000,0.00000000,0.00000000,
3.851658,1.2379,0.0170,0.0709,3.0841,1.0094,1.8647,-0.7428,-0.4147,-0.9853,13.0264,57.9162,15.5535,161.5156,17.9219,71.9844,0.00000000,0.00000000,0.00000000,
3.856873,1.2379,0.0170,0.0709,2.9993,0.5475,2.0937,-0.7428,-0.4147,-0.9853,13.0264,57.9162,15.5535,161.5156,17.9219,71.9844,0.00000000,0.00000000,0.00000000,
3.859927,1.2379,0.0170,0.0709,2.9993,0.5475,2.0937,-0.7428,-0.4147,-0.9853,13.0264,57.9162,15.5535,165.7031,15.4062,74.3438,0.00000000,0.00000000,0.00000000,
3.888730,1.2379,0.0170,0.0709,2.9993,0.5475,2.0937,-0.7428,-0.4147,-0.9853,11.5982,55.3645,18.0951,165.7031,15.4062,74.3438,0.00000000,0.00000000,0.00000000,
3.895942,1.2379,0.0170,0.0709,2.9993,0.5475,2.0937,-0.7428,-0.4147,-0.9853,11.5982,55.3645,18.0951,170.9375,13.2344,76.4375,0.00000000,0.00000000,0.00000000,
3.906623,1.2379,0.0170,0.0709,1.7171,-0.2288,0.9747,-0.7428,-0.4147,-0.9853,11.5982,55.3645,18.0951,170.9375,13.2344,76.4375,0.00000000,0.00000000,0.00000000,
3.922213,0.6833,-0.2774,-0.2594,1.7171,-0.2288,0.9747,-0.7428,-0.4147,-0.9853,11.5982,55.3645,18.0951,170.9375,13.2344,76.4375,0.00000000,0.00000000,0.00000000,
3.926317,0.6833,-0.2774,-0.2594,1.7171,-0.2288,0.9747,-0.4210,-0.0448,-1.0379,11.5982,55.3645,18.0951,170.9375,13.2344,76.4375,0.00000000,0.00000000,0.00000000,
3.946855,0.6833,-0.2774,-0.2594,1.7171,-0.2288,0.9747,-0.4210,-0.0448,-1.0379,11.5982,55.3645,18.0951,171.9219,12.5000,77.3125,0.00000000,0.00000000,0.00000000,
3.950574,0.6833,-0.2774,-0.2594,1.7171,-0.2288,0.9747,-0.4210,-0.0448,-1.0379,10.9713,54.3934,19.0786,171.9219,12.5000,77.3125,0.00000000,0.00000000,0.00000000,
3.959086,0.6833,-0.2774,-0.2594,1.7171,-0.2288,0.9747,-0.5181,0.0369,-0.2995,10.9713,54.3934,19.0786,171.9219,12.5000,77.3125,0.00000000,0.00000000,0.00000000,
3.978185,0.6833,-0.2774,-0.2594,-3.1335,-2.7994,-2.3650,-0.5181,0.0369,-0.2995,10.9713,54.3934,19.0786,171.9219,12.5000,77.3125,0.00000000,0.00000000,0.00000000,
3.980630,0.6833,-0.2774,-0.2594,-3.0809,-2.8578,-2.3595,-0.5181,0.0369,-0.2995,10.9713,54.3934,19.0786,171.9219,12.5000,77.3125,0.00000000,0.00000000,0.00000000,
3.982281,0.3850,-0.2593,-0.1491,-3.0809,-2.8578,-2.3595,-0.5181,0.0369,-0.2995,10.9713,54.3934,19.0786,171.9219,12.5000,77.3125,0.00000000,0.00000000,0.00000000,
3.984260,0.3850,-0.2593,-0.1491,-3.0809,-2.8578,-2.3595,-0.5181,0.0369,-0.2995,10.9713,54.3934,19.0786,174.2812,11.9219,77.9531,0.00000000,0.00000000,0.00000000,
4.009072,0.3850,-0.2593,-0.1491,-3.0809,-2.8578,-2.3595,-0.5181,0.0369,-0.2995,11.1476,54.5588,18.8391,174.2812,11.9219,77.9531,0.00000000,0.00000000,0.00000000,
4.021587,0.3850,-0.2593,-0.1491,-3.0809,-2.8578,-2.3595,-0.5181,0.0369,-0.2995,11.1476,54.5588,18.8391,178.3125,10.5156,79.2969,0.00000000,0.00000000,0.00000000,
4.027134,0.3850,-0.2593,-0.1491,-5.2083,-2.0849,-2.1354,-0.5181,0.0369,-0.2995,11.1476,54.5588,18.8391,178.3125,10.5156,79.2969,0.00000000,0.00000000,0.00000000,
4.039727,0.3850,-0.2593,-0.1491,-5.2083,-2.0849,-2.1354,-0.1192,-0.3886,1.3962,11.1476,54.5588,18.8391,178.3125,10.5156,79.2969,0.00000000,0.00000000,0.00000000,
4.047036,0.9087,-0.4670,0.3042,-5.2083,-2.0849,-2.1354,-0.1192,-0.3886,1.3962,11.1476,54.5588,18.8391,178.3125,10.5156,79.2969,0.00000000,0.00000000,0.00000000,
4.063166,0.9087,-0.4670,0.3042,-5.2083,-2.0849,-2.1354,-0.1192,-0.3886,1.3962,11.1476,54.5588,18.8391,182.0938,9.0000,80.8281,0.00000000,0.00000000,0.00000000,
4.087884,0.9087,-0.4670,0.3042,-4.1267,-3.9475,3.4274,-0.1192,-0.3886,1.3962,11.1476,54.5588,18.8391,182.0938,9.0000,80.8281,0.00000000,0.00000000,0.00000000,
4.091783,0.9087,-0.4670,0.3042,-3.8875,-2.8686,3.4035,-0.1192,-0.3886,1.3962,11.1476,54.5588,18.8391,182.0938,9.0000,80.8281,0.00000000,0.00000000,0.00000000,
4.095554,0.9087,-0.4670,0.3042,-3.8875,-2.8686,3.4035,-0.1192,-0.3886,1.3962,13.6696,60.4217,20.2688,182.0938,9.0000,80.8281,0.00000000,0.00000000,0.00000000,
4.104938,0.9087,-0.4670,0.3042,-3.8875,-2.8686,3.4035,-0.1192,-0.3886,1.3962,13.6696,60.4217,20.2688,186.1875,7.2031,82.7188,0.00000000,0.00000000,0.00000000,
4.121018,2.3856,0.0749,-0.2670,-3.8875,-2.8686,3.4035,-0.1192,-0.3886,1.3962,13.6696,60.4217,20.2688,186.1875,7.2031,82.7188,0.00000000,0.00000000,0.00000000,
4.125021,2.3856,0.0749,-0.2670,-3.8875,-2.8686,3.4035,0.8775,-0.1084,2.3036,13.6696,60.4217,20.2688,186.1875,7.2031,82.7188,0.00000000,0.00000000,0.00000000,
4.146727,2.3856,0.0749,-0.2670,-3.8875,-2.8686,3.4035,0.8775,-0.1084,2.3036,13.6696,60.4217,20.2688,189.7969,175.4219,85.3906,0.00000000,0.00000000,0.00000000,
4.150737,2.3856,0.0749,-0.2670,13.5418,1.5603,0.3967,0.8775,-0.1084,2.3036,13.6696,60.4217,20.2688,189.7969,175.4219,85.3906,0.00000000,0.00000000,0.00000000,
4.154219,2.3856,0.0749,-0.2670,13.5418,1.5603,0.3967,0.8775,-0.1084,2.3036,15.5086,63.1890,17.6248,189.7969,175.4219,85.3906,0.00000000,0.00000000,0.00000000,
4.160416,2.3856,0.0749,-0.2670,13.5418,1.5603,0.3967,-0.8907,1.3970,-1.3312,15.5086,63.1890,17.6248,189.7969,175.4219,85.3906,0.00000000,0.00000000,0.00000000,
4.180370,0.8398,0.0692,-0.1863,13.5418,1.5603,0.3967,-0.8907,1.3970,-1.3312,15.5086,63.1890,17.6248,189.7969,175.4219,85.3906,0.00000000,0.00000000,0.00000000,
4.187557,0.8398,0.0692,-0.1863,13.5418,1.5603,0.3967,-0.8907,1.3970,-1.3312,15.5086,63.1890,17.6248,193.5000,178.0625,87.9844,0.00000000,0.00000000,0.00000000,
4.207932,0.8398,0.0692,-0.1863,6.1284,3.4482,-4.3483,-0.8907,1.3970,-1.3312,15.5086,63.1890,17.6248,193.5000,178.0625,87.9844,0.00000000,0.00000000,0.00000000,
4.210898,0.8398,0.0692,-0.1863,6.1284,3.4482,-4.3483,-0.8907,1.3970,-1.3312,13.6904,60.4636,15.6465,193.5000,178.0625,87.9844,0.00000000,0.00000000,0.00000000,
4.213321,0.8398,0.0692,-0.1863,5.9502,2.7371,-4.4885,-0.8907,1.3970,-1.3312,13.6904,60.4636,15.6465,193.5000,178.0625,87.9844,0.00000000,0.00000000,0.00000000,
4.229170,0.8398,0.0692,-0.1863,5.9502,2.7371,-4.4885,-0.8907,1.3970,-1.3312,13.6904,60.4636,15.6465,195.4062,179.4219,88.7812,0.00000000,0.00000000,0.00000000,
4.240903,0.8398,0.0692,-0.1863,5.9502,2.7371,-4.4885,-0.6119,0.0992,-1.1747,13.6904,60.4636,15.6465,195.4062,179.4219,88.7812,0.00000000,0.00000000,0.00000000,
4.249343,0.4734,-0.1711,-0.2364,5.9502,2.7371,-4.4885,-0.6119,0.0992,-1.1747,13.6904,60.4636,15.6465,195.4062,179.4219,88.7812,0.00000000,0.00000000,0.00000000,
4.269515,0.4734,-0.1711,-0.2364,-6.7093,-0.3726,-0.4376,-0.6119,0.0992,-1.1747,13.6904,60.4636,15.6465,195.4062,179.4219,88.7812,0.00000000,0.00000000,0.00000000,
4.272894,0.4734,-0.1711,-0.2364,-6.7093,-0.3726,-0.4376,-0.6119,0.0992,-1.1747,13.6904,60.4636,15.6465,197.3125,-179.9688,89.0938,0.00000000,0.00000000,0.00000000,
4.294344,0.4734,-0.1711,-0.2364,-6.7093,-0.3726,-0.4376,-0.6119,0.0992,-1.1747,12.7024,58.4799,17.9893,197.3125,-179.9688,89.0938,0.00000000,0.00000000,0.00000000,
4.313606,0.4734,-0.1711,-0.2364,-6.7093,-0.3726,-0.4376,-0.6119,0.0992,-1.1747,12.7024,58.4799,17.9893,197.7656,179.0000,88.6562,0.00000000,0.00000000,0.00000000,
4.329606,0.9165,-0.1124,0.1895,-6.7093,-0.3726,-0.4376,-0.6119,0.0992,-1.1747,12.7024,58.4799,17.9893,197.7656,179.0000,88.6562,0.00000000,0.00000000,0.00000000,
4.332978,0.9165,-0.1124,0.1895,-6.7093,-0.3726,-0.4376,-0.2460,-1.0645,0.1157,12.7024,58.4799,17.9893,197.7656,179.0000,88.6562,0.00000000,0.00000000,0.00000000,
4.335101,0.9165,-0.1124,0.1895,-5.2093,-1.5572,-1.5062,-0.2460,-1.0645,0.1157,12.7024,58.4799,17.9893,197.7656,179.0000,88.6562,0.00000000,0.00000000,0.00000000,
4.336642,0.9165,-0.1124,0.1895,-5.0854,-1.3485,-1.1081,-0.2460,-1.0645,0.1157,12.7024,58.4799,17.9893,197.7656,179.0000,88.6562,0.00000000,0.00000000,0.00000000,
4.348076,0.9165,-0.1124,0.1895,-5.0854,-1.3485,-1.1081,-0.2460,-1.0645,0.1157,12.4862,59.4363,21.2408,197.7656,179.0000,88.6562,0.00000000,0.00000000,0.00000000,
4.353909,0.9165,-0.1124,0.1895,-5.0854,-1.3485,-1.1081,-0.2460,-1.0645,0.1157,12.4862,59.4363,21.2408,191.2812,173.5625,83.0312,0.00000000,0.00000000,0.00000000,
4.361911,0.9165,-0.1124,0.1895,-5.0854,-1.3485,-1.1081,-0.0598,0.3428,0.3376,12.4862,59.4363,21.2408,191.2812,173.5625,83.0312,0.00000000,0.00000000,0.00000000,
4.381502,1.0081,-0.2189,0.0746,-5.0854,-1.3485,-1.1081,-0.0598,0.3428,0.3376,12.4862,59.4363,21.2408,191.2812,173.5625,83.0312,0.00000000,0.00000000,0.00000000,
4.389026,1.0081,-0.2189,0.0746,1.4022,0.2756,2.7227,-0.0598,0.3428,0.3376,12.4862,59.4363,21.2408,191.2812,173.5625,83.0312,0.00000000,0.00000000,0.00000000,
4.395731,1.0081,-0.2189,0.0746,1.4022,0.2756,2.7227,-0.0598,0.3428,0.3376,12.4862,59.4363,21.2408,182.8906,167.3906,77.0625,0.00000000,0.00000000,0.00000000,
4.409680,1.0081,-0.2189,0.0746,1.4022,0.2756,2.7227,-0.0598,0.3428,0.3376,13.2706,61.1343,18.4712,182.8906,167.3906,77.0625,0.00000000,0.00000000,0.00000000,
4.438446,1.0081,-0.2189,0.0746,1.4022,0.2756,2.7227,-0.0598,0.3428,0.3376,13.2706,61.1343,18.4712,180.9688,166.2812,76.2344,0.00000000,0.00000000,0.00000000,
4.444675,1.0081,-0.2189,0.0746,1.4022,0.2756,2.7227,0.8763,0.9674,1.3357,13.2706,61.1343,18.4712,180.9688,166.2812,76.2344,0.00000000,0.00000000,0.00000000,
4.455118,1.0081,-0.2189,0.0746,0.7085,-0.8111,0.4768,0.8763,0.9674,1.3357,13.2706,61.1343,18.4712,180.9688,166.2812,76.2344,0.00000000,0.00000000,0.00000000,
4.459622,0.9983,-0.3397,-0.1289,0.7085,-0.8111,0.4768,0.8763,0.9674,1.3357,13.2706,61.1343,18.4712,180.9688,166.2812,76.2344,0.00000000,0.00000000,0.00000000,
4.463179,0.9983,-0.3397,-0.1289,0.8117,-0.2097,0.1682,0.8763,0.9674,1.3357,13.2706,61.1343,18.4712,180.9688,166.2812,76.2344,0.00000000,0.00000000,0.00000000,
4.479967,0.9983,-0.3397,-0.1289,0.8117,-0.2097,0.1682,0.8763,0.9674,1.3357,13.2706,61.1343,18.4712,188.4375,9.7188,80.1250,0.00000000,0.00000000,0.00000000,
4.488800,0.9983,-0.3397,-0.1289,0.8117,-0.2097,0.1682,0.8763,0.9674,1.3357,17.3560,64.9841,14.3107,188.4375,9.7188,80.1250,0.00000000,0.00000000,0.00000000,
4.511216,0.9983,-0.3397,-0.1289,-0.1583,-0.6774,-1.4612,0.8763,0.9674,1.3357,17.3560,64.9841,14.3107,188.4375,9.7188,80.1250,0.00000000,0.00000000,0.00000000,
4.516151,1.2720,-0.1529,-0.1346,-0.1583,-0.6774,-1.4612,0.8763,0.9674,1.3357,17.3560,64.9841,14.3107,188.4375,9.7188,80.1250,0.00000000,0.00000000,0.00000000,
4.523370,1.2720,-0.1529,-0.1346,-0.1583,-0.6774,-1.4612,1.9044,-0.6927,2.0275,17.3560,64.9841,14.3107,188.4375,9.7188,80.1250,0.00000000,0.00000000,0.00000000,
4.527443,1.2720,-0.1529,-0.1346,-0.1583,-0.6774,-1.4612,1.9044,-0.6927,2.0275,17.3560,64.9841,14.3107,196.1875,4.7188,84.9531,0.00000000,0.00000000,0.00000000,
4.549505,1.2720,-0.1529,-0.1346,-0.1583,-0.6774,-1.4612,1.9044,-0.6927,2.0275,22.1125,68.7158,12.7295,196.1875,4.7188,84.9531,0.00000000,0.00000000,0.00000000,
4.561307,1.2720,-0.1529,-0.1346,-0.1583,-0.6774,-1.4612,1.4066,-0.1772,0.8967,22.1125,68.7158,12.7295,196.1875,4.7188,84.9531,0.00000000,0.00000000,0.00000000,
4.566570,1.2720,-0.1529,-0.1346,-0.1583,-0.6774,-1.4612,1.4066,-0.1772,0.8967,22.1125,68.7158,12.7295,196.4844,175.2812,85.2500,0.00000000,0.00000000,0.00000000,
4.575148,1.2720,-0.1529,-0.1346,3.7635,2.0528,-1.8030,1.4066,-0.1772,0.8967,22.1125,68.7158,12.7295,196.4844,175.2812,85.2500,0.00000000,0.00000000,0.00000000,
4.579590,1.2720,-0.1529,-0.1346,3.7925,2.2443,-1.9155,1.4066,-0.1772,0.8967,22.1125,68.7158,12.7295,196.4844,175.2812,85.2500,0.00000000,0.00000000,0.00000000,
4.583796,1.3908,-0.1886,-0.2756,3.7925,2.2443,-1.9155,1.4066,-0.1772,0.8967,22.1125,68.7158,12.7295,196.4844,175.2812,85.2500,0.00000000,0.00000000,0.00000000,
4.604568,1.3908,-0.1886,-0.2756,3.7925,2.2443,-1.9155,1.4066,-0.1772,0.8967,22.1125,68.7158,12.7295,195.9375,174.2656,83.6094,0.00000000,0.00000000,0.00000000,
4.608364,1.3908,-0.1886,-0.2756,3.7925,2.2443,-1.9155,1.4066,-0.1772,0.8967,24.1235,70.9471,12.3375,195.9375,174.2656,83.6094,0.00000000,0.00000000,0.00000000,
4.633475,1.3908,-0.1886,-0.2756,4.5070,1.4481,-2.7660,1.4066,-0.1772,0.8967,24.1235,70.9471,12.3375,195.9375,174.2656,83.6094,0.00000000,0.00000000,0.00000000,
4.642130,1.3908,-0.1886,-0.2756,4.5070,1.4481,-2.7660,-0.0859,-0.8860,-0.0405,24.1235,70.9471,12.3375,195.9375,174.2656,83.6094,0.00000000,0.00000000,0.00000000,
4.648109,1.3908,-0.1886,-0.2756,4.5070,1.4481,-2.7660,-0.0859,-0.8860,-0.0405,24.1235,70.9471,12.3375,195.4062,173.5469,83.3594,0.00000000,0.00000000,0.00000000,
4.656050,1.0625,-0.2586,0.0028,4.5070,1.4481,-2.7660,-0.0859,-0.8860,-0.0405,24.1235,70.9471,12.3375,195.4062,173.5469,83.3594,0.00000000,0.00000000,0.00000000,
4.688057,1.0625,-0.2586,0.0028,4.5070,1.4481,-2.7660,-0.0859,-0.8860,-0.0405,24.1235,70.9471,12.3375,192.3750,8.8906,81.0000,0.00000000,0.00000000,0.00000000,
4.692816,1.0625,-0.2586,0.0028,4.5070,1.4481,-2.7660,-0.0859,-0.8860,-0.0405,23.9813,72.7116,14.8747,192.3750,8.8906,81.0000,0.00000000,0.00000000,0.00000000,
4.696567,1.0625,-0.2586,0.0028,1.8714,1.6474,-0.7505,-0.0859,-0.8860,-0.0405,23.9813,72.7116,14.8747,192.3750,8.8906,81.0000,0.00000000,0.00000000,0.00000000,
4.700066,1.0625,-0.2586,0.0028,1.9284,1.8548,-0.8252,-0.0859,-0.8860,-0.0405,23.9813,72.7116,14.8747,192.3750,8.8906,81.0000,0.00000000,0.00000000,0.00000000,
4.714057,0.5539,-0.6482,0.2080,1.9284,1.8548,-0.8252,-0.0859,-0.8860,-0.0405,23.9813,72.7116,14.8747,192.3750,8.8906,81.0000,0.00000000,0.00000000,0.00000000,
4.722889,0.5539,-0.6482,0.2080,1.9284,1.8548,-0.8252,-1.6711,0.9982,0.6785,23.9813,72.7116,14.8747,192.3750,8.8906,81.0000,0.00000000,0.00000000,0.00000000,
4.729252,0.5539,-0.6482,0.2080,1.9284,1.8548,-0.8252,-1.6711,0.9982,0.6785,23.9813,72.7116,14.8747,185.6562,12.6250,76.8906,0.00000000,0.00000000,0.00000000,
4.749495,0.5539,-0.6482,0.2080,1.9284,1.8548,-0.8252,-1.6711,0.9982,0.6785,25.4569,72.8045,13.7120,185.6562,12.6250,76.8906,0.00000000,0.00000000,0.00000000,
4.754565,0.5539,-0.6482,0.2080,-3.4911,-2.1507,1.5769,-1.6711,0.9982,0.6785,25.4569,72.8045,13.7120,185.6562,12.6250,76.8906,0.00000000,0.00000000,0.00000000,
4.762907,0.5539,-0.6482,0.2080,-3.4911,-2.1507,1.5769,0.2540,1.7232,0.1286,25.4569,72.8045,13.7120,185.6562,12.6250,76.8906,0.00000000,0.00000000,0.00000000,
4.770980,0.5539,-0.6482,0.2080,-3.4911,-2.1507,1.5769,0.2540,1.7232,0.1286,25.4569,72.8045,13.7120,176.5781,17.1094,72.6094,0.00000000,0.00000000,0.00000000,
4.786529,0.8783,-0.5342,0.2299,-3.4911,-2.1507,1.5769,0.2540,1.7232,0.1286,25.4569,72.8045,13.7120,176.5781,17.1094,72.6094,0.00000000,0.00000000,0.00000000,
4.808611,0.8783,-0.5342,0.2299,-3.4911,-2.1507,1.5769,0.2540,1.7232,0.1286,26.7567,71.7612,8.5043,176.5781,17.1094,72.6094,0.00000000,0.00000000,0.00000000,
4.814407,0.8783,-0.5342,0.2299,-1.7760,-2.1194,2.6368,0.2540,1.7232,0.1286,26.7567,71.7612,8.5043,176.5781,17.1094,72.6094,0.00000000,0.00000000,0.00000000,
4.817856,0.8783,-0.5342,0.2299,-1.5246,-2.0772,1.4389,0.2540,1.7232,0.1286,26.7567,71.7612,8.5043,176.5781,17.1094,72.6094,0.00000000,0.00000000,0.00000000,
4.820999,0.8783,-0.5342,0.2299,-1.5246,-2.0772,1.4389,0.2540,1.7232,0.1286,26.7567,71.7612,8.5043,168.1406,20.5625,69.1250,0.00000000,0.00000000,0.00000000,
4.842813,0.8783,-0.5342,0.2299,-1.5246,-2.0772,1.4389,1.0327,2.0670,0.3035,26.7567,71.7612,8.5043,168.1406,20.5625,69.1250,0.00000000,0.00000000,0.00000000,
4.848614,0.9755,-0.4366,0.0883,-1.5246,-2.0772,1.4389,1.0327,2.0670,0.3035,26.7567,71.7612,8.5043,168.1406,20.5625,69.1250,0.00000000,0.00000000,0.00000000,
4.857830,0.9755,-0.4366,0.0883,-1.5246,-2.0772,1.4389,1.0327,2.0670,0.3035,26.7567,71.7612,8.5043,164.1406,21.9219,67.6250,0.00000000,0.00000000,0.00000000,
4.875126,0.9755,-0.4366,0.0883,1.4537,-0.3576,-2.6749,1.0327,2.0670,0.3035,26.7567,71.7612,8.5043,164.1406,21.9219,67.6250,0.00000000,0.00000000,0.00000000,
4.889142,0.9755,-0.4366,0.0883,1.4537,-0.3576,-2.6749,1.0327,2.0670,0.3035,28.9812,72.0529,5.0444,164.1406,21.9219,67.6250,0.00000000,0.00000000,0.00000000,
4.895987,0.9755,-0.4366,0.0883,1.4537,-0.3576,-2.6749,1.0327,2.0670,0.3035,28.9812,72.0529,5.0444,162.9688,21.5000,68.1875,0.00000000,0.00000000,0.00000000,
4.914269,0.7438,-0.5057,0.1272,1.4537,-0.3576,-2.6749,1.0327,2.0670,0.3035,28.9812,72.0529,5.0444,162.9688,21.5000,68.1875,0.00000000,0.00000000,0.00000000,
4.923021,0.7438,-0.5057,0.1272,1.4537,-0.3576,-2.6749,-0.4581,-0.3800,0.7559,28.9812,72.0529,5.0444,162.9688,21.5000,68.1875,0.00000000,0.00000000,0.00000000,
4.937860,0.7438,-0.5057,0.1272,0.0279,-0.7306,-2.0803,-0.4581,-0.3800,0.7559,28.9812,72.0529,5.0444,162.9688,21.5000,68.1875,0.00000000,0.00000000,0.00000000,
4.943032,0.7438,-0.5057,0.1272,0.0768,-0.2941,-1.3548,-0.4581,-0.3800,0.7559,28.9812,72.0529,5.0444,162.9688,21.5000,68.1875,0.00000000,0.00000000,0.00000000,
4.946771,0.7438,-0.5057,0.1272,0.0768,-0.2941,-1.3548,-0.4581,-0.3800,0.7559,28.9812,72.0529,5.0444,163.4844,158.1719,68.1719,0.00000000,0.00000000,0.00000000,
4.950818,0.7438,-0.5057,0.1272,0.0768,-0.2941,-1.3548,-0.4581,-0.3800,0.7559,30.0533,73.2861,7.2125,163.4844,158.1719,68.1719,0.00000000,0.00000000,0.00000000,
4.963741,0.7438,-0.5057,0.1272,0.0768,-0.2941,-1.3548,0.1265,-0.7929,0.7606,30.0533,73.2861,7.2125,163.4844,158.1719,68.1719,0.00000000,0.00000000,0.00000000,
4.979081,0.7438,-0.5057,0.1272,0.0768,-0.2941,-1.3548,0.1265,-0.7929,0.7606,30.0533,73.2861,7.2125,166.4062,23.5000,66.5000,0.00000000,0.00000000,0.00000000,
4.982189,0.4065,-0.5737,-0.0314,0.0768,-0.2941,-1.3548,0.1265,-0.7929,0.7606,30.0533,73.2861,7.2125,166.4062,23.5000,66.5000,0.00000000,0.00000000,0.00000000,
4.995048,0.4065,-0.5737,-0.0314,-2.5242,0.1594,-0.2619,0.1265,-0.7929,0.7606,30.0533,73.2861,7.2125,166.4062,23.5000,66.5000,0.00000000,0.00000000,0.00000000,
5.008857,0.4065,-0.5737,-0.0314,-2.5242,0.1594,-0.2619,0.1265,-0.7929,0.7606,31.9624,74.9183,10.6601,166.4062,23.5000,66.5000,0.00000000,0.00000000,0.00000000,
5.021190,0.4065,-0.5737,-0.0314,-2.5242,0.1594,-0.2619,0.1265,-0.7929,0.7606,31.9624,74.9183,10.6601,168.6406,23.9844,65.5938,0.00000000,0.00000000,0.00000000,
5.044010,0.7250,-0.8426,0.1147,-2.5242,0.1594,-0.2619,0.1265,-0.7929,0.7606,31.9624,74.9183,10.6601,168.6406,23.9844,65.5938,0.00000000,0.00000000,0.00000000,
5.048385,0.7250,-0.8426,0.1147,-2.5242,0.1594,-0.2619,0.7154,-0.8142,0.8761,31.9624,74.9183,10.6601,168.6406,23.9844,65.5938,0.00000000,0.00000000,0.00000000,
5.055852,0.7250,-0.8426,0.1147,-3.1292,-1.0464,-1.5558,0.7154,-0.8142,0.8761,31.9624,74.9183,10.6601,168.6406,23.9844,65.5938,0.00000000,0.00000000,0.00000000,
5.060031,0.7250,-0.8426,0.1147,-2.9309,-0.7639,-1.3912,0.7154,-0.8142,0.8761,31.9624,74.9183,10.6601,168.6406,23.9844,65.5938,0.00000000,0.00000000,0.00000000,
5.063507,0.7250,-0.8426,0.1147,-2.9309,-0.7639,-1.3912,0.7154,-0.8142,0.8761,31.9624,74.9183,10.6601,168.8125,24.0938,64.4219,0.00000000,0.00000000,0.00000000,
5.089571,0.7250,-0.8426,0.1147,-2.9309,-0.7639,-1.3912,0.7154,-0.8142,0.8761,32.3227,74.7689,10.7367,168.8125,24.0938,64.4219,0.00000000,0.00000000,0.00000000,
5.105167,0.7250,-0.8426,0.1147,-2.9309,-0.7639,-1.3912,0.7154,-0.8142,0.8761,32.3227,74.7689,10.7367,168.3438,24.0469,61.1562,0.00000000,0.00000000,0.00000000,
5.120942,0.7250,-0.8426,0.1147,-0.4608,-2.7039,-0.2673,0.7154,-0.8142,0.8761,32.3227,74.7689,10.7367,168.3438,24.0469,61.1562,0.00000000,0.00000000,0.00000000,
5.128126,1.0157,-0.7115,-0.0205,-0.4608,-2.7039,-0.2673,0.7154,-0.8142,0.8761,32.3227,74.7689,10.7367,168.3438,24.0469,61.1562,0.00000000,0.00000000,0.00000000,
5.132852,1.0157,-0.7115,-0.0205,-0.4608,-2.7039,-0.2673,1.4023,-0.8090,2.2625,32.3227,74.7689,10.7367,168.3438,24.0469,61.1562,0.00000000,0.00000000,0.00000000,
5.146022,1.0157,-0.7115,-0.0205,-0.4608,-2.7039,-0.2673,1.4023,-0.8090,2.2625,32.3227,74.7689,10.7367,166.9688,24.3594,59.1562,0.00000000,0.00000000,0.00000000,
5.149709,1.0157,-0.7115,-0.0205,-0.4608,-2.7039,-0.2673,1.4023,-0.8090,2.2625,35.3884,75.9206,10.4697,166.9688,24.3594,59.1562,0.00000000,0.00000000,0.00000000,
5.164214,1.0157,-0.7115,-0.0205,-0.4608,-2.7039,-0.2673,0.4945,-0.6314,1.4432,35.3884,75.9206,10.4697,166.9688,24.3594,59.1562,0.00000000,0.00000000,0.00000000,
5.176631,1.0157,-0.7115,-0.0205,2.9099,0.3501,-2.0028,0.4945,-0.6314,1.4432,35.3884,75.9206,10.4697,166.9688,24.3594,59.1562,0.00000000,0.00000000,0.00000000,
5.179769,1.0157,-0.7115,-0.0205,3.1119,0.6193,-1.8728,0.4945,-0.6314,1.4432,35.3884,75.9206,10.4697,166.9688,24.3594,59.1562,0.00000000,0.00000000,0.00000000,
5.186854,1.1200,-0.2345,-0.2495,3.1119,0.6193,-1.8728,0.4945,-0.6314,1.4432,35.3884,75.9206,10.4697,166.9688,24.3594,59.1562,0.00000000,0.00000000,0.00000000,
5.190812,1.1200,-0.2345,-0.2495,3.1119,0.6193,-1.8728,0.4945,-0.6314,1.4432,35.3884,75.9206,10.4697,165.7031,26.2656,58.1719,0.00000000,0.00000000,0.00000000,
5.208945,1.1200,-0.2345,-0.2495,3.1119,0.6193,-1.8728,0.4945,-0.6314,1.4432,36.4707,76.7965,10.9601,165.7031,26.2656,58.1719,0.00000000,0.00000000,0.00000000,
5.230411,1.1200,-0.2345,-0.2495,3.1119,0.6193,-1.8728,0.4945,-0.6314,1.4432,36.4707,76.7965,10.9601,163.1094,29.1250,57.8125,0.00000000,0.00000000,0.00000000,
5.236839,1.1200,-0.2345,-0.2495,3.9034,4.5871,-3.7541,0.4945,-0.6314,1.4432,36.4707,76.7965,10.9601,163.1094,29.1250,57.8125,0.00000000,0.00000000,0.00000000,
5.245306,0.8369,-0.5641,-0.1642,3.9034,4.5871,-3.7541,0.4945,-0.6314,1.4432,36.4707,76.7965,10.9601,163.1094,29.1250,57.8125,0.00000000,0.00000000,0.00000000,
5.250621,0.8369,-0.5641,-0.1642,3.9034,4.5871,-3.7541,-0.0994,-0.5321,-0.9141,36.4707,76.7965,10.9601,163.1094,29.1250,57.8125,0.00000000,0.00000000,0.00000000,
5.271346,0.8369,-0.5641,-0.1642,3.9034,4.5871,-3.7541,-0.0994,-0.5321,-0.9141,36.4707,76.7965,10.9601,160.4062,30.2656,56.8594,0.00000000,0.00000000,0.00000000,
5.286404,0.8369,-0.5641,-0.1642,3.9034,4.5871,-3.7541,0.8103,-1.5420,-2.0305,36.4707,76.7965,10.9601,160.4062,30.2656,56.8594,0.00000000,0.00000000,0.00000000,
5.291174,0.8369,-0.5641,-0.1642,3.9034,4.5871,-3.7541,0.8103,-1.5420,-2.0305,31.3130,74.7843,10.9314,160.4062,30.2656,56.8594,0.00000000,0.00000000,0.00000000,
5.297523,0.8369,-0.5641,-0.1642,0.9344,1.1512,-2.3119,0.8103,-1.5420,-2.0305,31.3130,74.7843,10.9314,160.4062,30.2656,56.8594,0.00000000,0.00000000,0.00000000,
5.301122,0.8369,-0.5641,-0.1642,0.4044,0.4760,-1.9774,0.8103,-1.5420,-2.0305,31.3130,74.7843,10.9314,160.4062,30.2656,56.8594,0.00000000,0.00000000,0.00000000,
5.313678,0.8369,-0.5641,-0.1642,0.4044,0.4760,-1.9774,0.8103,-1.5420,-2.0305,31.3130,74.7843,10.9314,157.3906,31.7969,55.6719,0.00000000,0.00000000,0.00000000,
5.319061,0.6901,-1.2332,0.0140,0.4044,0.4760,-1.9774,0.8103,-1.5420,-2.0305,31.3130,74.7843,10.9314,157.3906,31.7969,55.6719,0.00000000,0.00000000,0.00000000,
5.349090,0.6901,-1.2332,0.0140,0.4044,0.4760,-1.9774,0.8103,-1.5420,-2.0305,22.9741,68.6308,13.0870,157.3906,31.7969,55.6719,0.00000000,0.00000000,0.00000000,
5.354854,0.6901,-1.2332,0.0140,0.4044,0.4760,-1.9774,0.8103,-1.5420,-2.0305,22.9741,68.6308,13.0870,151.5781,33.4844,54.3750,0.00000000,0.00000000,0.00000000,
5.359237,0.6901,-1.2332,0.0140,-2.4830,-6.3707,0.2385,0.8103,-1.5420,-2.0305,22.9741,68.6308,13.0870,151.5781,33.4844,54.3750,0.00000000,0.00000000,0.00000000,
5.370188,0.6901,-1.2332,0.0140,-2.4830,-6.3707,0.2385,0.6562,-1.7016,0.4988,22.9741,68.6308,13.0870,151.5781,33.4844,54.3750,0.00000000,0.00000000,0.00000000,
5.378083,0.8990,-0.6945,0.1464,-2.4830,-6.3707,0.2385,0.6562,-1.7016,0.4988,22.9741,68.6308,13.0870,151.5781,33.4844,54.3750,0.00000000,0.00000000,0.00000000,
5.396459,0.8990,-0.6945,0.1464,-2.4830,-6.3707,0.2385,0.6562,-1.7016,0.4988,22.9741,68.6308,13.0870,143.3125,37.7812,50.0000,0.00000000,0.00000000,0.00000000,
5.409130,0.8990,-0.6945,0.1464,-2.4830,-6.3707,0.2385,0.6562,-1.7016,0.4988,22.5406,68.8185,14.2453,143.3125,37.7812,50.0000,0.00000000,0.00000000,0.00000000,
5.418515,0.8990,-0.6945,0.1464,2.5547,-2.0103,1.3354,0.6562,-1.7016,0.4988,22.5406,68.8185,14.2453,143.3125,37.7812,50.0000,0.00000000,0.00000000,0.00000000,
5.421752,0.8990,-0.6945,0.1464,2.5852,-1.8765,1.2414,0.6562,-1.7016,0.4988,22.5406,68.8185,14.2453,143.3125,37.7812,50.0000,0.00000000,0.00000000,0.00000000,
5.437853,0.8990,-0.6945,0.1464,2.5852,-1.8765,1.2414,0.6562,-1.7016,0.4988,22.5406,68.8185,14.2453,136.5938,42.1562,45.5312,0.00000000,0.00000000,0.00000000,
5.445816,0.8990,-0.6945,0.1464,2.5852,-1.8765,1.2414,0.4205,0.2126,0.3383,22.5406,68.8185,14.2453,136.5938,42.1562,45.5312,0.00000000,0.00000000,0.00000000,
5.448785,0.8594,-0.6595,0.5587,2.5852,-1.8765,1.2414,0.4205,0.2126,0.3383,22.5406,68.8185,14.2453,136.5938,42.1562,45.5312,0.00000000,0.00000000,0.00000000,
5.476290,0.8594,-0.6595,0.5587,-0.1854,1.7849,2.9469,0.4205,0.2126,0.3383,22.5406,68.8185,14.2453,136.5938,42.1562,45.5312,0.00000000,0.00000000,0.00000000,
5.481868,0.8594,-0.6595,0.5587,-0.1854,1.7849,2.9469,0.4205,0.2126,0.3383,22.5406,68.8185,14.2453,132.7031,44.3438,43.5938,0.00000000,0.00000000,0.00000000,
5.489792,0.8594,-0.6595,0.5587,-0.1854,1.7849,2.9469,-0.1533,2.3915,2.0931,22.5406,68.8185,14.2453,132.7031,44.3438,43.5938,0.00000000,0.00000000,0.00000000,
5.494934,0.8594,-0.6595,0.5587,-0.1854,1.7849,2.9469,-0.1533,2.3915,2.0931,22.5115,70.4682,12.1110,132.7031,44.3438,43.5938,0.00000000,0.00000000,0.00000000,
5.516920,0.9342,-0.5823,0.1695,-0.1854,1.7849,2.9469,-0.1533,2.3915,2.0931,22.5115,70.4682,12.1110,132.7031,44.3438,43.5938,0.00000000,0.00000000,0.00000000,
5.522084,0.9342,-0.5823,0.1695,-0.1854,1.7849,2.9469,-0.1533,2.3915,2.0931,22.5115,70.4682,12.1110,133.3594,43.4375,44.7812,0.00000000,0.00000000,0.00000000,
5.539153,0.9342,-0.5823,0.1695,0.8963,-1.3557,5.1455,-0.1533,2.3915,2.0931,22.5115,70.4682,12.1110,133.3594,43.4375,44.7812,0.00000000,0.00000000,0.00000000,
5.544389,0.9342,-0.5823,0.1695,2.0912,-0.2783,4.9222,-0.1533,2.3915,2.0931,22.5115,70.4682,12.1110,133.3594,43.4375,44.7812,0.00000000,0.00000000,0.00000000,
5.549148,0.9342,-0.5823,0.1695,2.0912,-0.2783,4.9222,-0.1533,2.3915,2.0931,32.0449,75.4207,11.3355,133.3594,43.4375,44.7812,0.00000000,0.00000000,0.00000000,
5.563200,0.9342,-0.5823,0.1695,2.0912,-0.2783,4.9222,-0.1533,2.3915,2.0931,32.0449,75.4207,11.3355,136.7344,39.2031,49.5000,0.00000000,0.00000000,0.00000000,
5.566749,0.9342,-0.5823,0.1695,2.0912,-0.2783,4.9222,-1.1651,2.0106,4.0903,32.0449,75.4207,11.3355,136.7344,39.2031,49.5000,0.00000000,0.00000000,0.00000000,
5.578700,0.7541,-0.3369,0.0608,2.0912,-0.2783,4.9222,-1.1651,2.0106,4.0903,32.0449,75.4207,11.3355,136.7344,39.2031,49.5000,0.00000000,0.00000000,0.00000000,
5.598740,0.7541,-0.3369,0.0608,4.9126,5.0233,-2.4397,-1.1651,2.0106,4.0903,32.0449,75.4207,11.3355,136.7344,39.2031,49.5000,0.00000000,0.00000000,0.00000000,
5.604343,0.7541,-0.3369,0.0608,4.9126,5.0233,-2.4397,-1.1651,2.0106,4.0903,32.0449,75.4207,11.3355,138.2344,34.2656,54.8594,0.00000000,0.00000000,0.00000000,
5.608874,0.7541,-0.3369,0.0608,4.9126,5.0233,-2.4397,-1.1651,2.0106,4.0903,43.6138,78.5661,11.1387,138.2344,34.2656,54.8594,0.00000000,0.00000000,0.00000000,
5.646531,0.7541,-0.3369,0.0608,4.9126,5.0233,-2.4397,-1.1651,2.0106,4.0903,43.6138,78.5661,11.1387,132.0312,34.9375,54.9375,0.00000000,0.00000000,0.00000000,
5.649981,0.7541,-0.3369,0.0608,4.9126,5.0233,-2.4397,-0.7614,0.3682,3.6406,43.6138,78.5661,11.1387,132.0312,34.9375,54.9375,0.00000000,0.00000000,0.00000000,
5.651942,0.1892,-0.8366,0.0623,4.9126,5.0233,-2.4397,-0.7614,0.3682,3.6406,43.6138,78.5661,11.1387,132.0312,34.9375,54.9375,0.00000000,0.00000000,0.00000000,
5.660172,0.1892,-0.8366,0.0623,2.8008,4.3892,0.9148,-0.7614,0.3682,3.6406,43.6138,78.5661,11.1387,132.0312,34.9375,54.9375,0.00000000,0.00000000,0.00000000,
5.664219,0.1892,-0.8366,0.0623,4.0712,4.7026,1.3653,-0.7614,0.3682,3.6406,43.6138,78.5661,11.1387,132.0312,34.9375,54.9375,0.00000000,0.00000000,0.00000000,
5.689082,0.1892,-0.8366,0.0623,4.0712,4.7026,1.3653,-1.0327,-0.4998,3.3398,43.6138,78.5661,11.1387,132.0312,34.9375,54.9375,0.00000000,0.00000000,0.00000000,
5.692133,0.1892,-0.8366,0.0623,4.0712,4.7026,1.3653,-1.0327,-0.4998,3.3398,51.7908,80.0845,12.6568,132.0312,34.9375,54.9375,0.00000000,0.00000000,0.00000000,
5.694276,0.1892,-0.8366,0.0623,4.0712,4.7026,1.3653,-1.0327,-0.4998,3.3398,51.7908,80.0845,12.6568,126.8594,36.7344,53.2188,0.00000000,0.00000000,0.00000000,
5.722145,0.1892,-0.8366,0.0623,-0.0068,1.4652,0.5112,-1.0327,-0.4998,3.3398,51.7908,80.0845,12.6568,126.8594,36.7344,53.2188,0.00000000,0.00000000,0.00000000,
5.726006,0.0061,-0.8949,0.1891,-0.0068,1.4652,0.5112,-1.0327,-0.4998,3.3398,51.7908,80.0845,12.6568,126.8594,36.7344,53.2188,0.00000000,0.00000000,0.00000000,
5.730269,0.0061,-0.8949,0.1891,-0.0068,1.4652,0.5112,-1.0327,-0.4998,3.3398,51.7908,80.0845,12.6568,126.9531,37.7812,51.9375,0.00000000,0.00000000,0.00000000,
5.752349,0.0061,-0.8949,0.1891,-0.0068,1.4652,0.5112,-1.0327,-0.4998,3.3398,56.4480,78.7087,12.7185,126.9531,37.7812,51.9375,0.00000000,0.00000000,0.00000000,
5.771365,0.0061,-0.8949,0.1891,-0.0068,1.4652,0.5112,0.1477,0.0013,-0.0480,56.4480,78.7087,12.7185,126.9531,37.7812,51.9375,0.00000000,0.00000000,0.00000000,
5.776237,0.0061,-0.8949,0.1891,-0.0068,1.4652,0.5112,0.1477,0.0013,-0.0480,56.4480,78.7087,12.7185,125.5469,42.7344,46.1719,0.00000000,0.00000000,0.00000000,
5.782388,0.0061,-0.8949,0.1891,-0.9176,0.4950,1.3098,0.1477,0.0013,-0.0480,56.4480,78.7087,12.7185,125.5469,42.7344,46.1719,0.00000000,0.00000000,0.00000000,
5.786262,-0.1596,-1.0068,0.0345,-0.9176,0.4950,1.3098,0.1477,0.0013,-0.0480,56.4480,78.7087,12.7185,125.5469,42.7344,46.1719,0.00000000,0.00000000,0.00000000,
5.789002,-0.1596,-1.0068,0.0345,-1.1819,0.4731,1.2082,0.1477,0.0013,-0.0480,56.4480,78.7087,12.7185,125.5469,42.7344,46.1719,0.00000000,0.00000000,0.00000000,
5.808901,-0.1596,-1.0068,0.0345,-1.1819,0.4731,1.2082,0.1477,0.0013,-0.0480,56.1117,78.0374,11.7871,125.5469,42.7344,46.1719,0.00000000,0.00000000,0.00000000,
5.812834,-0.1596,-1.0068,0.0345,-1.1819,0.4731,1.2082,0.1477,0.0013,-0.0480,56.1117,78.0374,11.7871,119.5156,51.9062,36.7031,0.00000000,0.00000000,0.00000000,
5.843909,-0.1596,-1.0068,0.0345,-1.3685,-0.0817,-0.1286,0.1477,0.0013,-0.0480,56.1117,78.0374,11.7871,119.5156,51.9062,36.7031,0.00000000,0.00000000,0.00000000,
5.849510,0.3049,-1.1088,-0.0765,-1.3685,-0.0817,-0.1286,0.1477,0.0013,-0.0480,56.1117,78.0374,11.7871,119.5156,51.9062,36.7031,0.00000000,0.00000000,0.00000000,
5.852958,0.3049,-1.1088,-0.0765,-1.3685,-0.0817,-0.1286,0.4652,-1.1075,0.5183,56.1117,78.0374,11.7871,119.5156,51.9062,36.7031,0.00000000,0.00000000,0.00000000,
5.855686,0.3049,-1.1088,-0.0765,-1.3685,-0.0817,-0.1286,0.4652,-1.1075,0.5183,56.1117,78.0374,11.7871,115.3281,62.2656,26.0156,0.00000000,0.00000000,0.00000000,
5.894555,0.3049,-1.1088,-0.0765,-1.3685,-0.0817,-0.1286,0.4652,-1.1075,0.5183,56.2461,77.5710,9.8969,115.3281,62.2656,26.0156,0.00000000,0.00000000,0.00000000,
5.901795,0.3049,-1.1088,-0.0765,-1.3685,-0.0817,-0.1286,0.3067,-0.0641,-0.0867,56.2461,77.5710,9.8969,115.3281,62.2656,26.0156,0.00000000,0.00000000,0.00000000,
5.906310,0.3049,-1.1088,-0.0765,-1.3685,-0.0817,-0.1286,0.3067,-0.0641,-0.0867,56.2461,77.5710,9.8969,108.9688,70.5625,17.4688,0.00000000,0.00000000,0.00000000,
5.910439,0.3049,-1.1088,-0.0765,2.8320,-1.0432,-1.5013,0.3067,-0.0641,-0.0867,56.2461,77.5710,9.8969,108.9688,70.5625,17.4688,0.00000000,0.00000000,0.00000000,
5.914506,0.3049,-1.1088,-0.0765,2.7166,-1.0341,-1.5629,0.3067,-0.0641,-0.0867,56.2461,77.5710,9.8969,108.9688,70.5625,17.4688,0.00000000,0.00000000,0.00000000,
5.917346,0.3164,-1.1558,0.0029,2.7166,-1.0341,-1.5629,0.3067,-0.0641,-0.0867,56.2461,77.5710,9.8969,108.9688,70.5625,17.4688,0.00000000,0.00000000,0.00000000,
5.938183,0.3164,-1.1558,0.0029,2.7166,-1.0341,-1.5629,0.3067,-0.0641,-0.0867,56.2461,77.5710,9.8969,99.6875,78.9062,9.5781,0.00000000,0.00000000,0.00000000,
5.952943,0.3164,-1.1558,0.0029,2.7166,-1.0341,-1.5629,0.3067,-0.0641,-0.0867,57.2717,77.5487,9.6342,99.6875,78.9062,9.5781,0.00000000,0.00000000,0.00000000,
5.963096,0.3164,-1.1558,0.0029,2.7571,-1.4734,-0.8249,0.3067,-0.0641,-0.0867,57.2717,77.5487,9.6342,99.6875,78.9062,9.5781,0.00000000,0.00000000,0.00000000,
5.969353,0.3164,-1.1558,0.0029,2.7571,-1.4734,-0.8249,-0.0286,0.2104,-0.2246,57.2717,77.5487,9.6342,99.6875,78.9062,9.5781,0.00000000,0.00000000,0.00000000,
5.979505,0.3164,-1.1558,0.0029,2.7571,-1.4734,-0.8249,-0.0286,0.2104,-0.2246,57.2717,77.5487,9.6342,91.0625,86.4531,1.8750,0.00000000,0.00000000,0.00000000,
5.983990,0.1732,-1.1673,0.0608,2.7571,-1.4734,-0.8249,-0.0286,0.2104,-0.2246,57.2717,77.5487,9.6342,91.0625,86.4531,1.8750,0.00000000,0.00000000,0.00000000,
6.009166,0.1732,-1.1673,0.0608,2.7571,-1.4734,-0.8249,-0.0286,0.2104,-0.2246,56.4624,77.9346,10.5914,91.0625,86.4531,1.8750,0.00000000,0.00000000,0.00000000,
6.021237,0.1732,-1.1673,0.0608,1.6466,-1.3612,-0.3712,-0.0286,0.2104,-0.2246,56.4624,77.9346,10.5914,91.0625,86.4531,1.8750,0.00000000,0.00000000,0.00000000,
6.028580,0.1732,-1.1673,0.0608,1.6466,-1.3612,-0.3712,-0.0286,0.2104,-0.2246,56.4624,77.9346,10.5914,90.0625,86.8594,-0.0312,0.00000000,0.00000000,0.00000000,
6.034668,0.1732,-1.1673,0.0608,1.4550,-1.3450,-0.3086,-0.0286,0.2104,-0.2246,56.4624,77.9346,10.5914,90.0625,86.8594,-0.0312,0.00000000,0.00000000,0.00000000,
6.048789,-0.0939,-0.8565,0.1845,1.4550,-1.3450,-0.3086,-0.0286,0.2104,-0.2246,56.4624,77.9346,10.5914,90.0625,86.8594,-0.0312,0.00000000,0.00000000,0.00000000,
6.050365,-0.0939,-0.8565,0.1845,1.4550,-1.3450,-0.3086,-0.3043,0.9837,-0.4777,56.4624,77.9346,10.5914,90.0625,86.8594,-0.0312,0.00000000,0.00000000,0.00000000,
6.063118,-0.0939,-0.8565,0.1845,1.4550,-1.3450,-0.3086,-0.3043,0.9837,-0.4777,56.4624,77.9346,10.5914,91.0000,86.0312,1.6250,0.00000000,0.00000000,0.00000000,
6.085814,-0.0939,-0.8565,0.1845,-1.1279,-0.1006,1.2774,-0.3043,0.9837,-0.4777,56.4624,77.9346,10.5914,91.0000,86.0312,1.6250,0.00000000,0.00000000,0.00000000,
6.093481,-0.0939,-0.8565,0.1845,-1.1279,-0.1006,1.2774,-0.6431,1.0058,-0.3166,56.4624,77.9346,10.5914,91.0000,86.0312,1.6250,0.00000000,0.00000000,0.00000000,
6.097589,-0.0939,-0.8565,0.1845,-1.1279,-0.1006,1.2774,-0.6431,1.0058,-0.3166,56.9405,78.7304,12.4632,91.0000,86.0312,1.6250,0.00000000,0.00000000,0.00000000,
6.105905,-0.0939,-0.8565,0.1845,-1.1279,-0.1006,1.2774,-0.6431,1.0058,-0.3166,56.9405,78.7304,12.4632,87.4844,85.5938,0.6406,0.00000000,0.00000000,0.00000000,
6.113287,-0.2131,-0.8947,0.1700,-1.1279,-0.1006,1.2774,-0.6431,1.0058,-0.3166,56.9405,78.7304,12.4632,87.4844,85.5938,0.6406,0.00000000,0.00000000,0.00000000,
6.143792,-0.2131,-0.8947,0.1700,-2.8492,2.2815,1.3643,-0.6431,1.0058,-0.3166,56.9405,78.7304,12.4632,87.4844,85.5938,0.6406,0.00000000,0.00000000,0.00000000,
6.147781,-0.2131,-0.8947,0.1700,-2.8439,2.2403,1.3810,-0.6431,1.0058,-0.3166,56.9405,78.7304,12.4632,87.4844,85.5938,0.6406,0.00000000,0.00000000,0.00000000,
6.149994,-0.2131,-0.8947,0.1700,-2.8439,2.2403,1.3810,-0.6431,1.0058,-0.3166,56.9405,78.7304,12.4632,84.0000,83.6250,-0.2969,0.00000000,0.00000000,0.00000000,
6.152298,-0.2131,-0.8947,0.1700,-2.8439,2.2403,1.3810,-0.6431,1.0058,-0.3166,57.6672,79.3847,13.1703,84.0000,83.6250,-0.2969,0.00000000,0.00000000,0.00000000,
6.174388,-0.2131,-0.8947,0.1700,-2.8439,2.2403,1.3810,0.0251,-0.0272,-0.0265,57.6672,79.3847,13.1703,84.0000,83.6250,-0.2969,0.00000000,0.00000000,0.00000000,
6.188454,0.0027,-0.9612,-0.0125,-2.8439,2.2403,1.3810,0.0251,-0.0272,-0.0265,57.6672,79.3847,13.1703,84.0000,83.6250,-0.2969,0.00000000,0.00000000,0.00000000,
6.194946,0.0027,-0.9612,-0.0125,-2.8439,2.2403,1.3810,0.0251,-0.0272,-0.0265,57.6672,79.3847,13.1703,84.5938,83.1094,0.0781,0.00000000,0.00000000,0.00000000,
6.203989,0.0027,-0.9612,-0.0125,-2.1510,0.1029,0.7466,0.0251,-0.0272,-0.0265,57.6672,79.3847,13.1703,84.5938,83.1094,0.0781,0.00000000,0.00000000,0.00000000,
6.211045,0.0027,-0.9612,-0.0125,-2.1510,0.1029,0.7466,0.0251,-0.0272,-0.0265,57.0354,79.6134,12.8924,84.5938,83.1094,0.0781,0.00000000,0.00000000,0.00000000,
6.229861,0.0027,-0.9612,-0.0125,-2.1510,0.1029,0.7466,0.0251,-0.0272,-0.0265,57.0354,79.6134,12.8924,85.4531,83.3906,0.5625,0.00000000,0.00000000,0.00000000,
6.251807,0.0027,-0.9612,-0.0125,-2.1510,0.1029,0.7466,-0.1327,-0.3498,0.0395,57.0354,79.6134,12.8924,85.4531,83.3906,0.5625,0.00000000,0.00000000,0.00000000,
6.257426,0.1771,-0.8714,-0.1080,-2.1510,0.1029,0.7466,-0.1327,-0.3498,0.0395,57.0354,79.6134,12.8924,85.4531,83.3906,0.5625,0.00000000,0.00000000,0.00000000,
6.264061,0.1771,-0.8714,-0.1080,-0.0538,0.6771,-1.0028,-0.1327,-0.3498,0.0395,57.0354,79.6134,12.8924,85.4531,83.3906,0.5625,0.00000000,0.00000000,0.00000000,
6.268035,0.1771,-0.8714,-0.1080,-0.0731,0.6664,-0.8652,-0.1327,-0.3498,0.0395,57.0354,79.6134,12.8924,85.4531,83.3906,0.5625,0.00000000,0.00000000,0.00000000,
6.271152,0.1771,-0.8714,-0.1080,-0.0731,0.6664,-0.8652,-0.1327,-0.3498,0.0395,57.0354,79.6134,12.8924,86.4531,83.1875,0.9844,0.00000000,0.00000000,0.00000000,
6.291920,0.1771,-0.8714,-0.1080,-0.0731,0.6664,-0.8652,-0.1327,-0.3498,0.0395,57.4156,80.1456,13.4826,86.4531,83.1875,0.9844,0.00000000,0.00000000,0.00000000,
6.298232,0.1771,-0.8714,-0.1080,-0.0731,0.6664,-0.8652,-0.3377,-0.5086,-0.1824,57.4156,80.1456,13.4826,86.4531,83.1875,0.9844,0.00000000,0.00000000,0.00000000,
6.313759,0.1590,-0.9199,-0.0085,-0.0731,0.6664,-0.8652,-0.3377,-0.5086,-0.1824,57.4156,80.1456,13.4826,86.4531,83.1875,0.9844,0.00000000,0.00000000,0.00000000,
6.317796,0.1590,-0.9199,-0.0085,-0.0731,0.6664,-0.8652,-0.3377,-0.5086,-0.1824,57.4156,80.1456,13.4826,89.3750,83.4062,1.8594,0.00000000,0.00000000,0.00000000,
6.323488,0.1590,-0.9199,-0.0085,1.1477,1.3051,-0.9665,-0.3377,-0.5086,-0.1824,57.4156,80.1456,13.4826,89.3750,83.4062,1.8594,0.00000000,0.00000000,0.00000000,
6.349483,0.1590,-0.9199,-0.0085,1.1477,1.3051,-0.9665,-0.3377,-0.5086,-0.1824,55.9382,80.6783,13.8938,89.3750,83.4062,1.8594,0.00000000,0.00000000,0.00000000,
6.355243,0.1590,-0.9199,-0.0085,1.1477,1.3051,-0.9665,-0.3377,-0.5086,-0.1824,55.9382,80.6783,13.8938,93.4219,84.5000,2.6094,0.00000000,0.00000000,0.00000000,
6.375476,0.1590,-0.9199,-0.0085,1.1477,1.3051,-0.9665,-0.0940,-0.2568,0.0095,55.9382,80.6783,13.8938,93.4219,84.5000,2.6094,0.00000000,0.00000000,0.00000000,
6.388255,0.1590,-0.9199,-0.0085,0.0826,0.5826,0.5298,-0.0940,-0.2568,0.0095,55.9382,80.6783,13.8938,93.4219,84.5000,2.6094,0.00000000,0.00000000,0.00000000,
6.394735,0.0559,-0.8977,-0.0216,0.0826,0.5826,0.5298,-0.0940,-0.2568,0.0095,55.9382,80.6783,13.8938,93.4219,84.5000,2.6094,0.00000000,0.00000000,0.00000000,
6.397310,0.0559,-0.8977,-0.0216,0.1607,0.5814,0.5010,-0.0940,-0.2568,0.0095,55.9382,80.6783,13.8938,93.4219,84.5000,2.6094,0.00000000,0.00000000,0.00000000,
6.399916,0.0559,-0.8977,-0.0216,0.1607,0.5814,0.5010,-0.0940,-0.2568,0.0095,55.9382,80.6783,13.8938,96.1875,85.3281,3.1250,0.00000000,0.00000000,0.00000000,
6.409907,0.0559,-0.8977,-0.0216,0.1607,0.5814,0.5010,-0.0940,-0.2568,0.0095,56.0899,80.1163,12.5043,96.1875,85.3281,3.1250,0.00000000,0.00000000,0.00000000,
6.438970,0.0559,-0.8977,-0.0216,0.1607,0.5814,0.5010,-0.0940,-0.2568,0.0095,56.0899,80.1163,12.5043,96.5156,85.3281,3.3750,0.00000000,0.00000000,0.00000000,
6.443705,0.0559,-0.8977,-0.0216,-0.1341,0.9537,-0.4485,-0.0940,-0.2568,0.0095,56.0899,80.1163,12.5043,96.5156,85.3281,3.3750,0.00000000,0.00000000,0.00000000,
6.446418,0.2888,-1.0401,-0.0626,-0.1341,0.9537,-0.4485,-0.0940,-0.2568,0.0095,56.0899,80.1163,12.5043,96.5156,85.3281,3.3750,0.00000000,0.00000000,0.00000000,
6.455247,0.2888,-1.0401,-0.0626,-0.1341,0.9537,-0.4485,0.2476,-0.6766,0.1425,56.0899,80.1163,12.5043,96.5156,85.3281,3.3750,0.00000000,0.00000000,0.00000000,
6.480633,0.2888,-1.0401,-0.0626,-0.1341,0.9537,-0.4485,0.2476,-0.6766,0.1425,56.0899,80.1163,12.5043,96.2031,85.1562,3.2656,0.00000000,0.00000000,0.00000000,
6.490156,0.2888,-1.0401,-0.0626,-0.1341,0.9537,-0.4485,0.2476,-0.6766,0.1425,54.7970,79.3489,10.8681,96.2031,85.1562,3.2656,0.00000000,0.00000000,0.00000000,
6.495463,0.2888,-1.0401,-0.0626,-0.1341,0.9537,-0.4485,0.2384,-1.8288,0.0442,54.7970,79.3489,10.8681,96.2031,85.1562,3.2656,0.00000000,0.00000000,0.00000000,
6.506775,0.2888,-1.0401,-0.0626,1.9278,-0.5150,-0.5760,0.2384,-1.8288,0.0442,54.7970,79.3489,10.8681,96.2031,85.1562,3.2656,0.00000000,0.00000000,0.00000000,
6.511853,0.2888,-1.0401,-0.0626,1.9249,-0.5035,-0.5614,0.2384,-1.8288,0.0442,54.7970,79.3489,10.8681,96.2031,85.1562,3.2656,0.00000000,0.00000000,0.00000000,
6.520136,0.0798,-1.2832,-0.3103,1.9249,-0.5035,-0.5614,0.2384,-1.8288,0.0442,54.7970,79.3489,10.8681,96.2031,85.1562,3.2656,0.00000000,0.00000000,0.00000000,
6.524556,0.0798,-1.2832,-0.3103,1.9249,-0.5035,-0.5614,0.2384,-1.8288,0.0442,54.7970,79.3489,10.8681,95.4219,85.4219,3.1719,0.00000000,0.00000000,0.00000000,
6.549365,0.0798,-1.2832,-0.3103,1.9249,-0.5035,-0.5614,0.2384,-1.8288,0.0442,53.4771,79.5617,8.8167,95.4219,85.4219,3.1719,0.00000000,0.00000000,0.00000000,
6.563226,0.0798,-1.2832,-0.3103,1.9249,-0.5035,-0.5614,0.2384,-1.8288,0.0442,53.4771,79.5617,8.8167,94.4062,85.7656,3.3281,0.00000000,0.00000000,0.00000000,
6.566111,0.0798,-1.2832,-0.3103,-0.7034,-2.9817,-2.7392,0.2384,-1.8288,0.0442,53.4771,79.5617,8.8167,94.4062,85.7656,3.3281,0.00000000,0.00000000,0.00000000,
6.575192,0.0798,-1.2832,-0.3103,-0.7034,-2.9817,-2.7392,0.2449,-1.0710,-0.0566,53.4771,79.5617,8.8167,94.4062,85.7656,3.3281,0.00000000,0.00000000,0.00000000,
6.585844,0.0942,-1.2542,0.0949,-0.7034,-2.9817,-2.7392,0.2449,-1.0710,-0.0566,53.4771,79.5617,8.8167,94.4062,85.7656,3.3281,0.00000000,0.00000000,0.00000000,
6.604647,0.0942,-1.2542,0.0949,-0.7034,-2.9817,-2.7392,0.2449,-1.0710,-0.0566,53.4771,79.5617,8.8167,93.8125,85.7656,3.8750,0.00000000,0.00000000,0.00000000,
6.608928,0.0942,-1.2542,0.0949,-0.7034,-2.9817,-2.7392,0.2449,-1.0710,-0.0566,53.2200,79.7134,8.4212,93.8125,85.7656,3.8750,0.00000000,0.00000000,0.00000000,
6.624225,0.0942,-1.2542,0.0949,1.6315,-2.5659,-1.3327,0.2449,-1.0710,-0.0566,53.2200,79.7134,8.4212,93.8125,85.7656,3.8750,0.00000000,0.00000000,0.00000000,
6.629041,0.0942,-1.2542,0.0949,1.4721,-2.5412,-1.4893,0.2449,-1.0710,-0.0566,53.2200,79.7134,8.4212,93.8125,85.7656,3.8750,0.00000000,0.00000000,0.00000000,
6.644087,-0.1243,-0.7716,0.3000,1.4721,-2.5412,-1.4893,0.2449,-1.0710,-0.0566,53.2200,79.7134,8.4212,93.8125,85.7656,3.8750,0.00000000,0.00000000,0.00000000,
6.647420,-0.1243,-0.7716,0.3000,1.4721,-2.5412,-1.4893,0.2449,-1.0710,-0.0566,53.2200,79.7134,8.4212,93.4844,85.5625,4.2969,0.00000000,0.00000000,0.00000000,
6.656135,-0.1243,-0.7716,0.3000,1.4721,-2.5412,-1.4893,0.3449,0.9951,-0.2979,53.2200,79.7134,8.4212,93.4844,85.5625,4.2969,0.00000000,0.00000000,0.00000000,
6.684113,-0.1243,-0.7716,0.3000,-3.7891,1.4798,3.0543,0.3449,0.9951,-0.2979,53.2200,79.7134,8.4212,93.4844,85.5625,4.2969,0.00000000,0.00000000,0.00000000,
6.688765,-0.1243,-0.7716,0.3000,-3.7891,1.4798,3.0543,0.3449,0.9951,-0.2979,53.2200,79.7134,8.4212,92.6562,85.9688,3.8438,0.00000000,0.00000000,0.00000000,
6.691087,-0.1243,-0.7716,0.3000,-3.7891,1.4798,3.0543,0.3449,0.9951,-0.2979,52.1193,78.6596,6.9263,92.6562,85.9688,3.8438,0.00000000,0.00000000,0.00000000,
6.696066,-0.1243,-0.7716,0.3000,-3.7891,1.4798,3.0543,0.4814,-0.9607,-0.0958,52.1193,78.6596,6.9263,92.6562,85.9688,3.8438,0.00000000,0.00000000,0.00000000,
6.718222,0.0619,-1.0193,0.1469,-3.7891,1.4798,3.0543,0.4814,-0.9607,-0.0958,52.1193,78.6596,6.9263,92.6562,85.9688,3.8438,0.00000000,0.00000000,0.00000000,
6.730461,0.0619,-1.0193,0.1469,-3.7891,1.4798,3.0543,0.4814,-0.9607,-0.0958,52.1193,78.6596,6.9263,88.6250,85.4531,3.8281,0.00000000,0.00000000,0.00000000,
6.745792,0.0619,-1.0193,0.1469,-1.0354,0.7319,2.0022,0.4814,-0.9607,-0.0958,52.1193,78.6596,6.9263,88.6250,85.4531,3.8281,0.00000000,0.00000000,0.00000000,
6.751606,0.0619,-1.0193,0.1469,-1.0031,0.7109,1.8218,0.4814,-0.9607,-0.0958,52.1193,78.6596,6.9263,88.6250,85.4531,3.8281,0.00000000,0.00000000,0.00000000,
6.755087,0.0619,-1.0193,0.1469,-1.0031,0.7109,1.8218,0.4814,-0.9607,-0.0958,50.0131,78.7762,6.0560,88.6250,85.4531,3.8281,0.00000000,0.00000000,0.00000000,
6.771500,0.0619,-1.0193,0.1469,-1.0031,0.7109,1.8218,0.4814,-0.9607,-0.0958,50.0131,78.7762,6.0560,84.3438,85.3125,3.8750,0.00000000,0.00000000,0.00000000,
6.776089,0.0619,-1.0193,0.1469,-1.0031,0.7109,1.8218,0.2558,-0.2651,0.0402,50.0131,78.7762,6.0560,84.3438,85.3125,3.8750,0.00000000,0.00000000,0.00000000,
6.786112,0.1219,-0.8469,-0.0322,-1.0031,0.7109,1.8218,0.2558,-0.2651,0.0402,50.0131,78.7762,6.0560,84.3438,85.3125,3.8750,0.00000000,0.00000000,0.00000000,
6.804612,0.1219,-0.8469,-0.0322,0.4093,0.3292,-0.7559,0.2558,-0.2651,0.0402,50.0131,78.7762,6.0560,84.3438,85.3125,3.8750,0.00000000,0.00000000,0.00000000,
6.809397,0.1219,-0.8469,-0.0322,0.4093,0.3292,-0.7559,0.2558,-0.2651,0.0402,50.3190,78.8398,6.8898,84.3438,85.3125,3.8750,0.00000000,0.00000000,0.00000000,
6.812587,0.1219,-0.8469,-0.0322,0.4093,0.3292,-0.7559,0.2558,-0.2651,0.0402,50.3190,78.8398,6.8898,79.1094,85.1875,3.4062,0.00000000,0.00000000,0.00000000,
6.846673,0.1031,-0.8212,0.2994,0.4093,0.3292,-0.7559,0.2558,-0.2651,0.0402,50.3190,78.8398,6.8898,79.1094,85.1875,3.4062,0.00000000,0.00000000,0.00000000,
6.854890,0.1031,-0.8212,0.2994,0.4093,0.3292,-0.7559,-0.5446,-0.2052,-0.0969,50.3190,78.8398,6.8898,79.1094,85.1875,3.4062,0.00000000,0.00000000,0.00000000,
6.859281,0.1031,-0.8212,0.2994,0.4093,0.3292,-0.7559,-0.5446,-0.2052,-0.0969,50.3190,78.8398,6.8898,79.8438,84.3594,4.5000,0.00000000,0.00000000,0.00000000,
6.873746,0.1031,-0.8212,0.2994,0.0598,1.8731,0.6677,-0.5446,-0.2052,-0.0969,50.3190,78.8398,6.8898,79.8438,84.3594,4.5000,0.00000000,0.00000000,0.00000000,
6.879969,0.1031,-0.8212,0.2994,0.0764,1.8484,0.7360,-0.5446,-0.2052,-0.0969,50.3190,78.8398,6.8898,79.8438,84.3594,4.5000,0.00000000,0.00000000,0.00000000,
6.892382,0.1031,-0.8212,0.2994,0.0764,1.8484,0.7360,-0.5446,-0.2052,-0.0969,50.8178,78.9429,7.3903,79.8438,84.3594,4.5000,0.00000000,0.00000000,0.00000000,
6.898397,0.1031,-0.8212,0.2994,0.0764,1.8484,0.7360,0.1988,0.1013,0.1495,50.8178,78.9429,7.3903,79.8438,84.3594,4.5000,0.00000000,0.00000000,0.00000000,
6.901749,0.1031,-0.8212,0.2994,0.0764,1.8484,0.7360,0.1988,0.1013,0.1495,50.8178,78.9429,7.3903,83.4375,83.2656,5.1250,0.00000000,0.00000000,0.00000000,
6.918041,0.0290,-0.8651,0.1233,0.0764,1.8484,0.7360,0.1988,0.1013,0.1495,50.8178,78.9429,7.3903,83.4375,83.2656,5.1250,0.00000000,0.00000000,0.00000000,
6.924858,0.0290,-0.8651,0.1233,-0.5622,1.5270,1.7908,0.1988,0.1013,0.1495,50.8178,78.9429,7.3903,83.4375,83.2656,5.1250,0.00000000,0.00000000,0.00000000,
6.938197,0.0290,-0.8651,0.1233,-0.5622,1.5270,1.7908,0.1988,0.1013,0.1495,50.8178,78.9429,7.3903,80.3594,82.5781,5.0312,0.00000000,0.00000000,0.00000000,
6.952736,0.0290,-0.8651,0.1233,-0.5622,1.5270,1.7908,0.1988,0.1013,0.1495,50.9693,77.8045,5.8486,80.3594,82.5781,5.0312,0.00000000,0.00000000,0.00000000,
6.975826,0.0290,-0.8651,0.1233,-0.5622,1.5270,1.7908,0.6734,-0.4378,0.3823,50.9693,77.8045,5.8486,80.3594,82.5781,5.0312,0.00000000,0.00000000,0.00000000,
6.981710,0.0290,-0.8651,0.1233,-0.5622,1.5270,1.7908,0.6734,-0.4378,0.3823,50.9693,77.8045,5.8486,78.7656,81.5781,5.5781,0.00000000,0.00000000,0.00000000,
6.990255,0.2280,-0.9791,-0.0671,-0.5622,1.5270,1.7908,0.6734,-0.4378,0.3823,50.9693,77.8045,5.8486,78.7656,81.5781,5.5781,0.00000000,0.00000000,0.00000000,
6.994819,0.2280,-0.9791,-0.0671,-0.3885,0.9884,-0.0557,0.6734,-0.4378,0.3823,50.9693,77.8045,5.8486,78.7656,81.5781,5.5781,0.00000000,0.00000000,0.00000000,
6.998545,0.2280,-0.9791,-0.0671,-0.2431,0.9552,-0.3303,0.6734,-0.4378,0.3823,50.9693,77.8045,5.8486,78.7656,81.5781,5.5781,0.00000000,0.00000000,0.00000000,
7.010746,0.2280,-0.9791,-0.0671,-0.2431,0.9552,-0.3303,0.6734,-0.4378,0.3823,50.5827,76.6652,4.3256,78.7656,81.5781,5.5781,0.00000000,0.00000000,0.00000000,
7.021502,0.2280,-0.9791,-0.0671,-0.2431,0.9552,-0.3303,0.6734,-0.4378,0.3823,50.5827,76.6652,4.3256,77.7031,80.8281,5.5938,0.00000000,0.00000000,0.00000000,
7.046571,0.2280,-0.9791,-0.0671,1.7215,-0.2711,-2.4594,0.6734,-0.4378,0.3823,50.5827,76.6652,4.3256,77.7031,80.8281,5.5938,0.00000000,0.00000000,0.00000000,
7.050734,0.4430,-1.1946,-0.0116,1.7215,-0.2711,-2.4594,0.6734,-0.4378,0.3823,50.5827,76.6652,4.3256,77.7031,80.8281,5.5938,0.00000000,0.00000000,0.00000000,
7.057688,0.4430,-1.1946,-0.0116,1.7215,-0.2711,-2.4594,0.5178,-0.8560,0.2417,50.5827,76.6652,4.3256,77.7031,80.8281,5.5938,0.00000000,0.00000000,0.00000000,
7.063232,0.4430,-1.1946,-0.0116,1.7215,-0.2711,-2.4594,0.5178,-0.8560,0.2417,50.5827,76.6652,4.3256,77.4062,80.7969,5.6094,0.00000000,0.00000000,0.00000000,
7.093244,0.4430,-1.1946,-0.0116,1.7215,-0.2711,-2.4594,0.5178,-0.8560,0.2417,50.9744,77.2366,4.3458,77.4062,80.7969,5.6094,0.00000000,0.00000000,0.00000000,
7.100601,0.4430,-1.1946,-0.0116,1.7215,-0.2711,-2.4594,-0.3454,-0.0356,-0.2383,50.9744,77.2366,4.3458,77.4062,80.7969,5.6094,0.00000000,0.00000000,0.00000000,
7.105591,0.4430,-1.1946,-0.0116,1.7215,-0.2711,-2.4594,-0.3454,-0.0356,-0.2383,50.9744,77.2366,4.3458,77.3125,81.5469,5.8906,0.00000000,0.00000000,0.00000000,
7.109420,0.4430,-1.1946,-0.0116,3.6754,-2.2099,-0.8465,-0.3454,-0.0356,-0.2383,50.9744,77.2366,4.3458,77.3125,81.5469,5.8906,0.00000000,0.00000000,0.00000000,
7.113939,0.4430,-1.1946,-0.0116,3.5021,-2.1704,-0.7093,-0.3454,-0.0356,-0.2383,50.9744,77.2366,4.3458,77.3125,81.5469,5.8906,0.00000000,0.00000000,0.00000000,
7.124020,0.2048,-1.2041,0.0557,3.5021,-2.1704,-0.7093,-0.3454,-0.0356,-0.2383,50.9744,77.2366,4.3458,77.3125,81.5469,5.8906,0.00000000,0.00000000,0.00000000,
7.147125,0.2048,-1.2041,0.0557,3.5021,-2.1704,-0.7093,-0.3454,-0.0356,-0.2383,50.9744,77.2366,4.3458,77.0625,81.9688,5.8281,0.00000000,0.00000000,0.00000000,
7.151649,0.2048,-1.2041,0.0557,3.5021,-2.1704,-0.7093,-0.3454,-0.0356,-0.2383,50.0408,78.2533,5.4412,77.0625,81.9688,5.8281,0.00000000,0.00000000,0.00000000,
7.169157,0.2048,-1.2041,0.0557,0.6948,-2.0792,-0.2805,-0.3454,-0.0356,-0.2383,50.0408,78.2533,5.4412,77.0625,81.9688,5.8281,0.00000000,0.00000000,0.00000000,
7.179935,-0.1465,-0.8773,0.3756,0.6948,-2.0792,-0.2805,-0.3454,-0.0356,-0.2383,50.0408,78.2533,5.4412,77.0625,81.9688,5.8281,0.00000000,0.00000000,0.00000000,
7.183334,-0.1465,-0.8773,0.3756,0.6948,-2.0792,-0.2805,-1.0246,0.8625,-0.5730,50.0408,78.2533,5.4412,77.0625,81.9688,5.8281,0.00000000,0.00000000,0.00000000,
7.190495,-0.1465,-0.8773,0.3756,0.6948,-2.0792,-0.2805,-1.0246,0.8625,-0.5730,50.0408,78.2533,5.4412,76.9062,81.7812,5.4062,0.00000000,0.00000000,0.00000000,
7.210042,-0.1465,-0.8773,0.3756,0.6948,-2.0792,-0.2805,-1.0246,0.8625,-0.5730,49.9941,79.8394,8.8363,76.9062,81.7812,5.4062,0.00000000,0.00000000,0.00000000,
7.228826,-0.1465,-0.8773,0.3756,-2.6767,1.2800,3.1673,-1.0246,0.8625,-0.5730,49.9941,79.8394,8.8363,76.9062,81.7812,5.4062,0.00000000,0.00000000,0.00000000,
7.234186,-0.1465,-0.8773,0.3756,-2.6078,1.2639,3.1704,-1.0246,0.8625,-0.5730,49.9941,79.8394,8.8363,76.9062,81.7812,5.4062,0.00000000,0.00000000,0.00000000,
7.237627,-0.1465,-0.8773,0.3756,-2.6078,1.2639,3.1704,-1.0246,0.8625,-0.5730,49.9941,79.8394,8.8363,75.6719,81.1094,4.6562,0.00000000,0.00000000,0.00000000,
7.248192,-0.2907,-1.0986,0.2188,-2.6078,1.2639,3.1704,-1.0246,0.8625,-0.5730,49.9941,79.8394,8.8363,75.6719,81.1094,4.6562,0.00000000,0.00000000,0.00000000,
7.261742,-0.2907,-1.0986,0.2188,-2.6078,1.2639,3.1704,-0.2515,0.7900,0.0522,49.9941,79.8394,8.8363,75.6719,81.1094,4.6562,0.00000000,0.00000000,0.00000000,
7.273442,-0.2907,-1.0986,0.2188,-2.6078,1.2639,3.1704,-0.2515,0.7900,0.0522,49.9941,79.8394,8.8363,72.8750,79.9531,3.9062,0.00000000,0.00000000,0.00000000,
7.288517,-0.2907,-1.0986,0.2188,-4.2012,-1.2707,2.6620,-0.2515,0.7900,0.0522,49.9941,79.8394,8.8363,72.8750,79.9531,3.9062,0.00000000,0.00000000,0.00000000,
7.293293,-0.2907,-1.0986,0.2188,-4.2012,-1.2707,2.6620,-0.2515,0.7900,0.0522,50.8110,79.2532,8.5177,72.8750,79.9531,3.9062,0.00000000,0.00000000,0.00000000,
7.301587,-0.2907,-1.0986,0.2188,-4.2012,-1.2707,2.6620,0.3028,-1.0370,0.2516,50.8110,79.2532,8.5177,72.8750,79.9531,3.9062,0.00000000,0.00000000,0.00000000,
7.313264,-0.2907,-1.0986,0.2188,-4.2012,-1.2707,2.6620,0.3028,-1.0370,0.2516,50.8110,79.2532,8.5177,70.4375,78.9219,3.6562,0.00000000,0.00000000,0.00000000,
7.320462,0.0344,-0.8456,0.0283,-4.2012,-1.2707,2.6620,0.3028,-1.0370,0.2516,50.8110,79.2532,8.5177,70.4375,78.9219,3.6562,0.00000000,0.00000000,0.00000000,
7.347508,0.0344,-0.8456,0.0283,-1.8395,1.0367,-0.5556,0.3028,-1.0370,0.2516,50.8110,79.2532,8.5177,70.4375,78.9219,3.6562,0.00000000,0.00000000,0.00000000,
7.351166,0.0344,-0.8456,0.0283,-1.7677,1.0244,-0.5376,0.3028,-1.0370,0.2516,50.8110,79.2532,8.5177,70.4375,78.9219,3.6562,0.00000000,0.00000000,0.00000000,
7.353533,0.0344,-0.8456,0.0283,-1.7677,1.0244,-0.5376,0.3028,-1.0370,0.2516,50.2770,78.8003,7.9396,70.4375,78.9219,3.6562,0.00000000,0.00000000,0.00000000,
7.355854,0.0344,-0.8456,0.0283,-1.7677,1.0244,-0.5376,0.3028,-1.0370,0.2516,50.2770,78.8003,7.9396,70.6719,79.7031,3.9375,0.00000000,0.00000000,0.00000000,
7.381333,0.2199,-0.7741,-0.0197,-1.7677,1.0244,-0.5376,0.3028,-1.0370,0.2516,50.2770,78.8003,7.9396,70.6719,79.7031,3.9375,0.00000000,0.00000000,0.00000000,
7.386893,0.2199,-0.7741,-0.0197,-1.7677,1.0244,-0.5376,0.1466,-1.4990,0.1818,50.2770,78.8003,7.9396,70.6719,79.7031,3.9375,0.00000000,0.00000000,0.00000000,
7.397687,0.2199,-0.7741,-0.0197,-1.7677,1.0244,-0.5376,0.1466,-1.4990,0.1818,50.2770,78.8003,7.9396,71.2969,80.0781,4.6094,0.00000000,0.00000000,0.00000000,
7.408229,0.2199,-0.7741,-0.0197,1.1495,2.0573,-0.5808,0.1466,-1.4990,0.1818,50.2770,78.8003,7.9396,71.2969,80.0781,4.6094,0.00000000,0.00000000,0.00000000,
7.413199,0.2199,-0.7741,-0.0197,1.1495,2.0573,-0.5808,0.1466,-1.4990,0.1818,48.9610,78.5693,7.6814,71.2969,80.0781,4.6094,0.00000000,0.00000000,0.00000000,
7.438369,0.2199,-0.7741,-0.0197,1.1495,2.0573,-0.5808,0.1466,-1.4990,0.1818,48.9610,78.5693,7.6814,73.9844,81.0938,5.7031,0.00000000,0.00000000,0.00000000,
7.450644,-0.1019,-0.8757,0.0506,1.1495,2.0573,-0.5808,0.1466,-1.4990,0.1818,48.9610,78.5693,7.6814,73.9844,81.0938,5.7031,0.00000000,0.00000000,0.00000000,
7.462988,-0.1019,-0.8757,0.0506,1.1495,2.0573,-0.5808,0.0784,-0.7591,0.0873,48.9610,78.5693,7.6814,73.9844,81.0938,5.7031,0.00000000,0.00000000,0.00000000,
7.468281,-0.1019,-0.8757,0.0506,-0.6626,1.6157,0.2201,0.0784,-0.7591,0.0873,48.9610,78.5693,7.6814,73.9844,81.0938,5.7031,0.00000000,0.00000000,0.00000000,
7.471689,-0.1019,-0.8757,0.0506,-0.5903,1.5879,0.0994,0.0784,-0.7591,0.0873,48.9610,78.5693,7.6814,73.9844,81.0938,5.7031,0.00000000,0.00000000,0.00000000,
7.480282,-0.1019,-0.8757,0.0506,-0.5903,1.5879,0.0994,0.0784,-0.7591,0.0873,48.9610,78.5693,7.6814,78.3594,81.9688,6.7656,0.00000000,0.00000000,0.00000000,
7.489462,-0.1019,-0.8757,0.0506,-0.5903,1.5879,0.0994,0.0784,-0.7591,0.0873,48.1963,77.7495,6.7816,78.3594,81.9688,6.7656,0.00000000,0.00000000,0.00000000,
7.502109,-0.1019,-0.8757,0.0506,-0.5903,1.5879,0.0994,0.4433,-1.1515,0.2243,48.1963,77.7495,6.7816,78.3594,81.9688,6.7656,0.00000000,0.00000000,0.00000000,
7.507717,0.1241,-1.0931,-0.2315,-0.5903,1.5879,0.0994,0.4433,-1.1515,0.2243,48.1963,77.7495,6.7816,78.3594,81.9688,6.7656,0.00000000,0.00000000,0.00000000,
7.521393,0.1241,-1.0931,-0.2315,-0.5903,1.5879,0.0994,0.4433,-1.1515,0.2243,48.1963,77.7495,6.7816,80.0938,82.3750,6.5469,0.00000000,0.00000000,0.00000000,
7.528225,0.1241,-1.0931,-0.2315,-1.2910,0.2878,-1.4633,0.4433,-1.1515,0.2243,48.1963,77.7495,6.7816,80.0938,82.3750,6.5469,0.00000000,0.00000000,0.00000000,
7.548636,0.1241,-1.0931,-0.2315,-1.2910,0.2878,-1.4633,0.4433,-1.1515,0.2243,47.6900,77.2524,5.5679,80.0938,82.3750,6.5469,0.00000000,0.00000000,0.00000000,
7.563824,0.1241,-1.0931,-0.2315,-1.2910,0.2878,-1.4633,0.4433,-1.1515,0.2243,47.6900,77.2524,5.5679,78.5312,82.5781,5.6875,0.00000000,0.00000000,0.00000000,
7.585574,0.1241,-1.0931,-0.2315,-1.2910,0.2878,-1.4633,0.0473,-1.1624,0.1288,47.6900,77.2524,5.5679,78.5312,82.5781,5.6875,0.00000000,0.00000000,0.00000000,
7.593874,-0.1221,-1.2905,-0.0899,-1.2910,0.2878,-1.4633,0.0473,-1.1624,0.1288,47.6900,77.2524,5.5679,78.5312,82.5781,5.6875,0.00000000,0.00000000,0.00000000,
7.598384,-0.1221,-1.2905,-0.0899,0.6710,-1.4521,-2.4542,0.0473,-1.1624,0.1288,47.6900,77.2524,5.5679,78.5312,82.5781,5.6875,0.00000000,0.00000000,0.00000000,
7.603069,-0.1221,-1.2905,-0.0899,0.7007,-1.4226,-2.3866,0.0473,-1.1624,0.1288,47.6900,77.2524,5.5679,78.5312,82.5781,5.6875,0.00000000,0.00000000,0.00000000,
7.607465,-0.1221,-1.2905,-0.0899,0.7007,-1.4226,-2.3866,0.0473,-1.1624,0.1288,47.6900,77.2524,5.5679,75.1875,82.5156,5.5312,0.00000000,0.00000000,0.00000000,
7.611972,-0.1221,-1.2905,-0.0899,0.7007,-1.4226,-2.3866,0.0473,-1.1624,0.1288,46.6426,76.7906,5.3589,75.1875,82.5156,5.5312,0.00000000,0.00000000,0.00000000,
7.623765,-0.1221,-1.2905,-0.0899,0.7007,-1.4226,-2.3866,0.1180,-1.2740,0.4599,46.6426,76.7906,5.3589,75.1875,82.5156,5.5312,0.00000000,0.00000000,0.00000000,
7.646340,-0.1221,-1.2905,-0.0899,0.7007,-1.4226,-2.3866,0.1180,-1.2740,0.4599,46.6426,76.7906,5.3589,71.0781,82.5938,5.4219,0.00000000,0.00000000,0.00000000,
7.650260,-0.1221,-1.2905,-0.0899,-2.0984,-3.2614,-2.6203,0.1180,-1.2740,0.4599,46.6426,76.7906,5.3589,71.0781,82.5938,5.4219,0.00000000,0.00000000,0.00000000,
7.651997,0.1237,-1.1834,0.0584,-2.0984,-3.2614,-2.6203,0.1180,-1.2740,0.4599,46.6426,76.7906,5.3589,71.0781,82.5938,5.4219,0.00000000,0.00000000,0.00000000,
7.691974,0.1237,-1.1834,0.0584,-2.0984,-3.2614,-2.6203,0.1180,-1.2740,0.4599,46.6426,76.7906,5.3589,68.3906,82.6719,5.2969,0.00000000,0.00000000,0.00000000,
7.699579,0.1237,-1.1834,0.0584,-2.0984,-3.2614,-2.6203,0.1180,-1.2740,0.4599,45.4643,76.8147,5.6985,68.3906,82.6719,5.2969,0.00000000,0.00000000,0.00000000,
7.706283,0.1237,-1.1834,0.0584,-2.0984,-3.2614,-2.6203,-0.4048,-0.1093,-0.2683,45.4643,76.8147,5.6985,68.3906,82.6719,5.2969,0.00000000,0.00000000,0.00000000,
7.710570,0.1980,-0.8149,0.4417,-2.0984,-3.2614,-2.6203,-0.4048,-0.1093,-0.2683,45.4643,76.8147,5.6985,68.3906,82.6719,5.2969,0.00000000,0.00000000,0.00000000,
7.714962,0.1980,-0.8149,0.4417,0.5484,-1.5931,1.7649,-0.4048,-0.1093,-0.2683,45.4643,76.8147,5.6985,68.3906,82.6719,5.2969,0.00000000,0.00000000,0.00000000,
7.717750,0.1980,-0.8149,0.4417,0.3915,-1.5739,1.8575,-0.4048,-0.1093,-0.2683,45.4643,76.8147,5.6985,68.3906,82.6719,5.2969,0.00000000,0.00000000,0.00000000,
7.735479,0.1980,-0.8149,0.4417,0.3915,-1.5739,1.8575,-0.4048,-0.1093,-0.2683,45.4643,76.8147,5.6985,66.5938,82.6875,5.2500,0.00000000,0.00000000,0.00000000,
7.749448,0.1980,-0.8149,0.4417,0.3915,-1.5739,1.8575,-0.4048,-0.1093,-0.2683,44.7391,77.0209,6.6598,66.5938,82.6875,5.2500,0.00000000,0.00000000,0.00000000,
7.770731,0.1980,-0.8149,0.4417,0.9168,2.0568,3.9082,-0.4048,-0.1093,-0.2683,44.7391,77.0209,6.6598,66.5938,82.6875,5.2500,0.00000000,0.00000000,0.00000000,
7.775835,0.1980,-0.8149,0.4417,0.9168,2.0568,3.9082,-0.4048,-0.1093,-0.2683,44.7391,77.0209,6.6598,64.0781,82.3750,4.9688,0.00000000,0.00000000,0.00000000,
7.785381,0.1980,-0.8149,0.4417,0.9168,2.0568,3.9082,0.0050,-0.6877,-0.6499,44.7391,77.0209,6.6598,64.0781,82.3750,4.9688,0.00000000,0.00000000,0.00000000,
7.789619,0.2529,-0.9705,0.4294,0.9168,2.0568,3.9082,0.0050,-0.6877,-0.6499,44.7391,77.0209,6.6598,64.0781,82.3750,4.9688,0.00000000,0.00000000,0.00000000,
7.810792,0.2529,-0.9705,0.4294,0.9168,2.0568,3.9082,0.0050,-0.6877,-0.6499,43.0861,77.0268,6.2685,64.0781,82.3750,4.9688,0.00000000,0.00000000,0.00000000,
7.815184,0.2529,-0.9705,0.4294,0.9168,2.0568,3.9082,0.0050,-0.6877,-0.6499,43.0861,77.0268,6.2685,60.7969,81.8438,4.7656,0.00000000,0.00000000,0.00000000,
7.823246,0.2529,-0.9705,0.4294,0.9168,2.0568,3.9082,0.4418,-0.5810,-0.1481,43.0861,77.0268,6.2685,60.7969,81.8438,4.7656,0.00000000,0.00000000,0.00000000,
7.834442,0.2529,-0.9705,0.4294,1.1983,0.1477,3.8828,0.4418,-0.5810,-0.1481,43.0861,77.0268,6.2685,60.7969,81.8438,4.7656,0.00000000,0.00000000,0.00000000,
7.837681,0.2529,-0.9705,0.4294,1.1235,0.1298,3.6808,0.4418,-0.5810,-0.1481,43.0861,77.0268,6.2685,60.7969,81.8438,4.7656,0.00000000,0.00000000,0.00000000,
7.851588,0.1191,-0.9240,0.1265,1.1235,0.1298,3.6808,0.4418,-0.5810,-0.1481,43.0861,77.0268,6.2685,60.7969,81.8438,4.7656,0.00000000,0.00000000,0.00000000,
7.855642,0.1191,-0.9240,0.1265,1.1235,0.1298,3.6808,0.4418,-0.5810,-0.1481,43.0861,77.0268,6.2685,57.9688,81.8750,4.8281,0.00000000,0.00000000,0.00000000,
7.890324,0.1191,-0.9240,0.1265,1.1235,0.1298,3.6808,0.4418,-0.5810,-0.1481,41.0425,76.3227,5.3423,57.9688,81.8750,4.8281,0.00000000,0.00000000,0.00000000,
7.895171,0.1191,-0.9240,0.1265,-0.3475,0.5354,0.7909,0.4418,-0.5810,-0.1481,41.0425,76.3227,5.3423,57.9688,81.8750,4.8281,0.00000000,0.00000000,0.00000000,
7.898124,0.1191,-0.9240,0.1265,-0.3475,0.5354,0.7909,0.4418,-0.5810,-0.1481,41.0425,76.3227,5.3423,55.6562,82.0938,4.6875,0.00000000,0.00000000,0.00000000,
7.905239,0.1191,-0.9240,0.1265,-0.3475,0.5354,0.7909,0.3652,-0.5051,0.0319,41.0425,76.3227,5.3423,55.6562,82.0938,4.6875,0.00000000,0.00000000,0.00000000,
7.912050,0.1419,-0.8693,-0.0426,-0.3475,0.5354,0.7909,0.3652,-0.5051,0.0319,41.0425,76.3227,5.3423,55.6562,82.0938,4.6875,0.00000000,0.00000000,0.00000000,
7.938734,0.1419,-0.8693,-0.0426,-0.3475,0.5354,0.7909,0.3652,-0.5051,0.0319,41.0425,76.3227,5.3423,52.0000,82.4531,3.9531,0.00000000,0.00000000,0.00000000,
7.950908,0.1419,-0.8693,-0.0426,-0.3475,0.5354,0.7909,0.3652,-0.5051,0.0319,40.3198,75.9991,4.5835,52.0000,82.4531,3.9531,0.00000000,0.00000000,0.00000000,
7.955276,0.1419,-0.8693,-0.0426,-0.0651,1.0454,-1.1801,0.3652,-0.5051,0.0319,40.3198,75.9991,4.5835,52.0000,82.4531,3.9531,0.00000000,0.00000000,0.00000000,
7.957752,0.1419,-0.8693,-0.0426,-0.1219,1.0226,-1.1212,0.3652,-0.5051,0.0319,40.3198,75.9991,4.5835,52.0000,82.4531,3.9531,0.00000000,0.00000000,0.00000000,
7.980256,0.1419,-0.8693,-0.0426,-0.1219,1.0226,-1.1212,0.3652,-0.5051,0.0319,40.3198,75.9991,4.5835,51.6875,83.3750,4.2344,0.00000000,0.00000000,0.00000000,
7.984684,0.1419,-0.8693,-0.0426,-0.1219,1.0226,-1.1212,-0.1550,0.1095,-0.1334,40.3198,75.9991,4.5835,51.6875,83.3750,4.2344,0.00000000,0.00000000,0.00000000,
7.987637,0.1264,-0.7656,0.0107,-0.1219,1.0226,-1.1212,-0.1550,0.1095,-0.1334,40.3198,75.9991,4.5835,51.6875,83.3750,4.2344,0.00000000,0.00000000,0.00000000,
8.009324,0.1264,-0.7656,0.0107,-0.1219,1.0226,-1.1212,-0.1550,0.1095,-0.1334,39.9360,76.0950,4.9888,51.6875,83.3750,4.2344,0.00000000,0.00000000,0.00000000,
8.016205,0.1264,-0.7656,0.0107,-0.1531,1.7858,-1.1584,-0.1550,0.1095,-0.1334,39.9360,76.0950,4.9888,51.6875,83.3750,4.2344,0.00000000,0.00000000,0.00000000,
8.027934,0.1264,-0.7656,0.0107,-0.1531,1.7858,-1.1584,-0.1550,0.1095,-0.1334,39.9360,76.0950,4.9888,52.6250,83.2656,5.1094,0.00000000,0.00000000,0.00000000,
8.032721,0.1264,-0.7656,0.0107,-0.1531,1.7858,-1.1584,0.2598,-1.1337,0.3121,39.9360,76.0950,4.9888,52.6250,83.2656,5.1094,0.00000000,0.00000000,0.00000000,
8.056685,0.1747,-0.8824,0.1878,-0.1531,1.7858,-1.1584,0.2598,-1.1337,0.3121,39.9360,76.0950,4.9888,52.6250,83.2656,5.1094,0.00000000,0.00000000,0.00000000,
8.064884,0.1747,-0.8824,0.1878,-0.1531,1.7858,-1.1584,0.2598,-1.1337,0.3121,39.9360,76.0950,4.9888,52.1562,80.6875,8.1875,0.00000000,0.00000000,0.00000000,
8.075414,0.1747,-0.8824,0.1878,-0.0978,1.8212,0.7715,0.2598,-1.1337,0.3121,39.9360,76.0950,4.9888,52.1562,80.6875,8.1875,0.00000000,0.00000000,0.00000000,
8.080301,0.1747,-0.8824,0.1878,0.0397,1.7926,0.5659,0.2598,-1.1337,0.3121,39.9360,76.0950,4.9888,52.1562,80.6875,8.1875,0.00000000,0.00000000,0.00000000,
8.090575,0.1747,-0.8824,0.1878,0.0397,1.7926,0.5659,0.2598,-1.1337,0.3121,38.5191,74.9813,5.1440,52.1562,80.6875,8.1875,0.00000000,0.00000000,0.00000000,
8.102521,0.1747,-0.8824,0.1878,0.0397,1.7926,0.5659,0.6868,-1.6974,0.4038,38.5191,74.9813,5.1440,52.1562,80.6875,8.1875,0.00000000,0.00000000,0.00000000,
8.106607,0.1747,-0.8824,0.1878,0.0397,1.7926,0.5659,0.6868,-1.6974,0.4038,38.5191,74.9813,5.1440,51.1719,79.8594,8.6719,0.00000000,0.00000000,0.00000000,
8.118072,0.2463,-1.2234,-0.1110,0.0397,1.7926,0.5659,0.6868,-1.6974,0.4038,38.5191,74.9813,5.1440,51.1719,79.8594,8.6719,0.00000000,0.00000000,0.00000000,
8.135134,0.2463,-1.2234,-0.1110,0.8703,-0.6141,-0.3620,0.6868,-1.6974,0.4038,38.5191,74.9813,5.1440,51.1719,79.8594,8.6719,0.00000000,0.00000000,0.00000000,
8.146081,0.2463,-1.2234,-0.1110,0.8703,-0.6141,-0.3620,0.6868,-1.6974,0.4038,38.5191,74.9813,5.1440,49.5312,79.4219,8.5156,0.00000000,0.00000000,0.00000000,
8.148652,0.2463,-1.2234,-0.1110,0.8703,-0.6141,-0.3620,0.6868,-1.6974,0.4038,38.2232,73.8196,4.8045,49.5312,79.4219,8.5156,0.00000000,0.00000000,0.00000000,
8.184012,0.1511,-1.3184,-0.1023,0.8703,-0.6141,-0.3620,0.6868,-1.6974,0.4038,38.2232,73.8196,4.8045,49.5312,79.4219,8.5156,0.00000000,0.00000000,0.00000000,
8.189826,0.1511,-1.3184,-0.1023,0.8703,-0.6141,-0.3620,-0.0762,-0.0495,0.0040,38.2232,73.8196,4.8045,49.5312,79.4219,8.5156,0.00000000,0.00000000,0.00000000,
8.194205,0.1511,-1.3184,-0.1023,0.8703,-0.6141,-0.3620,-0.0762,-0.0495,0.0040,38.2232,73.8196,4.8045,48.5625,78.9844,8.7188,0.00000000,0.00000000,0.00000000,
8.198406,0.1511,-1.3184,-0.1023,1.1931,-3.3632,-3.1517,-0.0762,-0.0495,0.0040,38.2232,73.8196,4.8045,48.5625,78.9844,8.7188,0.00000000,0.00000000,0.00000000,
8.201803,0.1511,-1.3184,-0.1023,1.1691,-3.2884,-2.9139,-0.0762,-0.0495,0.0040,38.2232,73.8196,4.8045,48.5625,78.9844,8.7188,0.00000000,0.00000000,0.00000000,
8.212302,0.1511,-1.3184,-0.1023,1.1691,-3.2884,-2.9139,-0.0762,-0.0495,0.0040,38.3504,75.3353,5.5220,48.5625,78.9844,8.7188,0.00000000,0.00000000,0.00000000,
8.224945,0.1511,-1.3184,-0.1023,1.1691,-3.2884,-2.9139,-1.0773,0.7603,-0.1465,38.3504,75.3353,5.5220,48.5625,78.9844,8.7188,0.00000000,0.00000000,0.00000000,
8.229003,0.1511,-1.3184,-0.1023,1.1691,-3.2884,-2.9139,-1.0773,0.7603,-0.1465,38.3504,75.3353,5.5220,49.2031,78.8125,9.0781,0.00000000,0.00000000,0.00000000,
8.243671,0.0605,-0.8025,0.4864,1.1691,-3.2884,-2.9139,-1.0773,0.7603,-0.1465,38.3504,75.3353,5.5220,49.2031,78.8125,9.0781,0.00000000,0.00000000,0.00000000,
8.256322,0.0605,-0.8025,0.4864,-0.1525,-1.9380,0.4594,-1.0773,0.7603,-0.1465,38.3504,75.3353,5.5220,49.2031,78.8125,9.0781,0.00000000,0.00000000,0.00000000,
8.271567,0.0605,-0.8025,0.4864,-0.1525,-1.9380,0.4594,-1.0773,0.7603,-0.1465,38.3504,75.3353,5.5220,49.2812,79.0625,9.1562,0.00000000,0.00000000,0.00000000,
8.289890,0.0605,-0.8025,0.4864,-0.1525,-1.9380,0.4594,-1.0773,0.7603,-0.1465,38.9804,76.6040,5.9373,49.2812,79.0625,9.1562,0.00000000,0.00000000,0.00000000,
