
time,gFx,gFy,gFz,ax,ay,az,wx,wy,wz,Bx,By,Bz,Azimuth,Pitch,Roll,Latitude,Longitude,Speed (m/s),
0.106255,0.0000,0.0000,0.0000,0.0000,0.0000,0.0000,0.0000,0.0000,0.0000,0.0000,0.0000,0.0000,349.8906,70.6562,-9.2031,0.00000000,0.00000000,0.00000000,
0.109909,-0.1703,-0.9714,0.0230,0.0000,0.0000,0.0000,0.0000,0.0000,0.0000,0.0000,0.0000,0.0000,349.8906,70.6562,-9.2031,0.00000000,0.00000000,0.00000000,
0.147079,-0.1703,-0.9714,0.0230,0.0000,0.0000,0.0000,0.0000,0.0000,0.0000,0.0000,0.0000,0.0000,349.8906,70.6562,-9.2031,0.00000000,0.00000000,0.00000000,
0.150335,-0.1703,-0.9714,0.0230,0.0000,0.0000,0.0000,0.0000,0.0000,0.0000,9.5037,36.4094,12.2947,349.8906,70.6562,-9.2031,0.00000000,0.00000000,0.00000000,
0.182980,-0.1714,-0.9730,0.0198,0.0000,0.0000,0.0000,0.0000,0.0000,0.0000,9.5037,36.4094,12.2947,349.8906,70.6562,-9.2031,0.00000000,0.00000000,0.00000000,
0.193731,-0.1714,-0.9730,0.0198,0.0000,0.0000,0.0000,0.0000,0.0000,0.0000,9.5037,36.4094,12.2947,349.8906,70.6562,-9.2031,0.00000000,0.00000000,0.00000000,
0.229543,-0.1714,-0.9730,0.0198,0.0000,0.0000,0.0000,0.0000,0.0000,0.0000,9.3286,35.6217,12.3479,349.8906,70.6562,-9.2031,0.00000000,0.00000000,0.00000000,
0.234052,-0.1714,-0.9730,0.0198,0.0000,0.0000,0.0000,0.0000,0.0000,0.0000,9.3286,35.6217,12.3479,349.8906,70.6562,-9.2031,0.00000000,0.00000000,0.00000000,
0.242971,-0.1721,-0.9724,0.0189,0.0000,0.0000,0.0000,0.0000,0.0000,0.0000,9.3286,35.6217,12.3479,349.8906,70.6562,-9.2031,0.00000000,0.00000000,0.00000000,
0.274041,-0.1721,-0.9724,0.0189,0.0000,0.0000,0.0000,0.0000,0.0000,0.0000,9.3286,35.6217,12.3479,349.8906,70.6562,-9.2031,0.00000000,0.00000000,0.00000000,
0.284733,-0.1721,-0.9724,0.0189,-0.0108,-0.0123,-0.0326,0.0000,0.0000,0.0000,9.3286,35.6217,12.3479,349.8906,70.6562,-9.2031,0.00000000,0.00000000,0.00000000,
0.289325,-0.1721,-0.9724,0.0189,-0.0073,-0.0082,-0.0234,0.0000,0.0000,0.0000,9.3286,35.6217,12.3479,349.8906,70.6562,-9.2031,0.00000000,0.00000000,0.00000000,
0.293349,-0.1721,-0.9724,0.0189,-0.0073,-0.0082,-0.0234,0.0000,0.0000,0.0000,9.2330,36.0138,12.5563,349.8906,70.6562,-9.2031,0.00000000,0.00000000,0.00000000,
0.311527,-0.1721,-0.9724,0.0189,-0.0073,-0.0082,-0.0234,0.0066,-0.0044,0.0030,9.2330,36.0138,12.5563,349.8906,70.6562,-9.2031,0.00000000,0.00000000,0.00000000,
0.316648,-0.1715,-0.9709,0.0222,-0.0073,-0.0082,-0.0234,0.0066,-0.0044,0.0030,9.2330,36.0138,12.5563,349.8906,70.6562,-9.2031,0.00000000,0.00000000,0.00000000,
0.319924,-0.1715,-0.9709,0.0222,-0.0073,-0.0082,-0.0234,0.0066,-0.0044,0.0030,9.2330,36.0138,12.5563,349.8906,70.6562,-9.2031,0.00000000,0.00000000,0.00000000,
0.349337,-0.1715,-0.9709,0.0222,0.0024,0.0100,0.0125,0.0066,-0.0044,0.0030,9.2330,36.0138,12.5563,349.8906,70.6562,-9.2031,0.00000000,0.00000000,0.00000000,
0.353759,-0.1715,-0.9709,0.0222,0.0024,0.0100,0.0125,0.0066,-0.0044,0.0030,9.6003,36.0165,12.3909,349.8906,70.6562,-9.2031,0.00000000,0.00000000,0.00000000,
0.357420,-0.1715,-0.9709,0.0222,0.0024,0.0100,0.0125,0.0066,-0.0044,0.0030,9.6003,36.0165,12.3909,349.8906,70.6562,-9.2031,0.00000000,0.00000000,0.00000000,
0.382802,-0.1745,-0.9714,0.0227,0.0024,0.0100,0.0125,0.0066,-0.0044,0.0030,9.6003,36.0165,12.3909,349.8906,70.6562,-9.2031,0.00000000,0.00000000,0.00000000,
0.391935,-0.1745,-0.9714,0.0227,0.0024,0.0100,0.0125,0.0021,-0.0055,0.0039,9.6003,36.0165,12.3909,349.8906,70.6562,-9.2031,0.00000000,0.00000000,0.00000000,
0.396831,-0.1745,-0.9714,0.0227,0.0024,0.0100,0.0125,0.0021,-0.0055,0.0039,9.6003,36.0165,12.3909,349.8906,70.6562,-9.2031,0.00000000,0.00000000,0.00000000,
0.403614,-0.1745,-0.9714,0.0227,-0.0117,-0.0013,0.0021,0.0021,-0.0055,0.0039,9.6003,36.0165,12.3909,349.8906,70.6562,-9.2031,0.00000000,0.00000000,0.00000000,
0.406789,-0.1745,-0.9714,0.0227,-0.0103,-0.0009,0.0017,0.0021,-0.0055,0.0039,9.6003,36.0165,12.3909,349.8906,70.6562,-9.2031,0.00000000,0.00000000,0.00000000,
0.429525,-0.1745,-0.9714,0.0227,-0.0103,-0.0009,0.0017,0.0021,-0.0055,0.0039,9.9148,35.8970,12.8564,349.8906,70.6562,-9.2031,0.00000000,0.00000000,0.00000000,
0.433616,-0.1745,-0.9714,0.0227,-0.0103,-0.0009,0.0017,-0.0117,0.0066,-0.0056,9.9148,35.8970,12.8564,349.8906,70.6562,-9.2031,0.00000000,0.00000000,0.00000000,
0.440580,-0.1745,-0.9714,0.0227,-0.0103,-0.0009,0.0017,-0.0117,0.0066,-0.0056,9.9148,35.8970,12.8564,350.1562,80.0469,-9.8594,0.00000000,0.00000000,0.00000000,
0.443738,-0.1709,-0.9736,0.0199,-0.0103,-0.0009,0.0017,-0.0117,0.0066,-0.0056,9.9148,35.8970,12.8564,350.1562,80.0469,-9.8594,0.00000000,0.00000000,0.00000000,
0.463510,-0.1709,-0.9736,0.0199,-0.0002,0.0047,0.0199,-0.0117,0.0066,-0.0056,9.9148,35.8970,12.8564,350.1562,80.0469,-9.8594,0.00000000,0.00000000,0.00000000,
0.480827,-0.1709,-0.9736,0.0199,-0.0002,0.0047,0.0199,-0.0117,0.0066,-0.0056,9.9148,35.8970,12.8564,340.5469,79.7188,-10.2344,0.00000000,0.00000000,0.00000000,
0.491269,-0.1709,-0.9736,0.0199,-0.0002,0.0047,0.0199,-0.0117,0.0066,-0.0056,9.9195,35.3207,11.3340,340.5469,79.7188,-10.2344,0.00000000,0.00000000,0.00000000,
0.515969,-0.1734,-0.9709,0.0191,-0.0002,0.0047,0.0199,-0.0117,0.0066,-0.0056,9.9195,35.3207,11.3340,340.5469,79.7188,-10.2344,0.00000000,0.00000000,0.00000000,
0.520385,-0.1734,-0.9709,0.0191,-0.0002,0.0047,0.0199,-0.0203,0.0105,-0.0024,9.9195,35.3207,11.3340,340.5469,79.7188,-10.2344,0.00000000,0.00000000,0.00000000,
0.524422,-0.1734,-0.9709,0.0191,-0.0002,0.0047,0.0199,-0.0203,0.0105,-0.0024,9.9195,35.3207,11.3340,350.3438,80.0000,-9.9531,0.00000000,0.00000000,0.00000000,
0.527159,-0.1734,-0.9709,0.0191,-0.0106,-0.0070,-0.0031,-0.0203,0.0105,-0.0024,9.9195,35.3207,11.3340,350.3438,80.0000,-9.9531,0.00000000,0.00000000,0.00000000,
0.529402,-0.1734,-0.9709,0.0191,-0.0103,-0.0057,0.0037,-0.0203,0.0105,-0.0024,9.9195,35.3207,11.3340,350.3438,80.0000,-9.9531,0.00000000,0.00000000,0.00000000,
0.549765,-0.1734,-0.9709,0.0191,-0.0103,-0.0057,0.0037,-0.0203,0.0105,-0.0024,10.1190,36.3891,12.2979,350.3438,80.0000,-9.9531,0.00000000,0.00000000,0.00000000,
0.564054,-0.1734,-0.9709,0.0191,-0.0103,-0.0057,0.0037,-0.0203,0.0105,-0.0024,10.1190,36.3891,12.2979,350.4219,80.0312,-9.8906,0.00000000,0.00000000,0.00000000,
0.575437,-0.1716,-0.9726,0.0162,-0.0103,-0.0057,0.0037,-0.0203,0.0105,-0.0024,10.1190,36.3891,12.2979,350.4219,80.0312,-9.8906,0.00000000,0.00000000,0.00000000,
0.584064,-0.1716,-0.9726,0.0162,-0.0142,0.0086,-0.0174,-0.0203,0.0105,-0.0024,10.1190,36.3891,12.2979,350.4219,80.0312,-9.8906,0.00000000,0.00000000,0.00000000,
0.593726,-0.1716,-0.9726,0.0162,-0.0142,0.0086,-0.0174,-0.0106,0.0131,-0.0106,10.1190,36.3891,12.2979,350.4219,80.0312,-9.8906,0.00000000,0.00000000,0.00000000,
0.606944,-0.1716,-0.9726,0.0162,-0.0142,0.0086,-0.0174,-0.0106,0.0131,-0.0106,10.1190,36.3891,12.2979,345.8438,79.8594,-10.0625,0.00000000,0.00000000,0.00000000,
0.630328,-0.1716,-0.9726,0.0162,-0.0142,0.0086,-0.0174,-0.0106,0.0131,-0.0106,10.1474,36.1645,12.4213,345.8438,79.8594,-10.0625,0.00000000,0.00000000,0.00000000,
0.635769,-0.1716,-0.9726,0.0162,-0.0142,0.0086,-0.0174,0.0044,0.0013,-0.0115,10.1474,36.1645,12.4213,345.8438,79.8594,-10.0625,0.00000000,0.00000000,0.00000000,
0.643108,-0.1716,-0.9726,0.0162,-0.0038,0.0102,-0.0017,0.0044,0.0013,-0.0115,10.1474,36.1645,12.4213,345.8438,79.8594,-10.0625,0.00000000,0.00000000,0.00000000,
0.646330,-0.1711,-0.9727,0.0169,-0.0038,0.0102,-0.0017,0.0044,0.0013,-0.0115,10.1474,36.1645,12.4213,345.8438,79.8594,-10.0625,0.00000000,0.00000000,0.00000000,
0.648514,-0.1711,-0.9727,0.0169,-0.0073,0.0097,-0.0036,0.0044,0.0013,-0.0115,10.1474,36.1645,12.4213,345.8438,79.8594,-10.0625,0.00000000,0.00000000,0.00000000,
0.650426,-0.1711,-0.9727,0.0169,-0.0073,0.0097,-0.0036,0.0044,0.0013,-0.0115,10.1474,36.1645,12.4213,349.0469,79.9062,-10.0156,0.00000000,0.00000000,0.00000000,
0.689222,-0.1711,-0.9727,0.0169,-0.0073,0.0097,-0.0036,0.0044,0.0013,-0.0115,10.1474,36.1645,12.4213,350.0312,79.8906,-10.0312,0.00000000,0.00000000,0.00000000,
0.693831,-0.1711,-0.9727,0.0169,-0.0073,0.0097,-0.0036,0.0044,0.0013,-0.0115,9.5915,35.8573,11.7668,350.0312,79.8906,-10.0312,0.00000000,0.00000000,0.00000000,
0.707839,-0.1711,-0.9727,0.0169,0.0042,-0.0159,-0.0295,0.0044,0.0013,-0.0115,9.5915,35.8573,11.7668,350.0312,79.8906,-10.0312,0.00000000,0.00000000,0.00000000,
0.716738,-0.1711,-0.9727,0.0169,0.0042,-0.0159,-0.0295,-0.0014,-0.0015,-0.0028,9.5915,35.8573,11.7668,350.0312,79.8906,-10.0312,0.00000000,0.00000000,0.00000000,
0.720727,-0.1715,-0.9713,0.0184,0.0042,-0.0159,-0.0295,-0.0014,-0.0015,-0.0028,9.5915,35.8573,11.7668,350.0312,79.8906,-10.0312,0.00000000,0.00000000,0.00000000,
0.731174,-0.1715,-0.9713,0.0184,0.0042,-0.0159,-0.0295,-0.0014,-0.0015,-0.0028,9.5915,35.8573,11.7668,350.0625,79.9219,-10.0156,0.00000000,0.00000000,0.00000000,
0.750166,-0.1715,-0.9713,0.0184,0.0042,-0.0159,-0.0295,-0.0014,-0.0015,-0.0028,10.3206,37.2803,12.5078,350.0625,79.9219,-10.0156,0.00000000,0.00000000,0.00000000,
0.764511,-0.1715,-0.9713,0.0184,-0.0070,0.0203,0.0081,-0.0014,-0.0015,-0.0028,10.3206,37.2803,12.5078,350.0625,79.9219,-10.0156,0.00000000,0.00000000,0.00000000,
0.767390,-0.1715,-0.9713,0.0184,-0.0062,0.0181,0.0106,-0.0014,-0.0015,-0.0028,10.3206,37.2803,12.5078,350.0625,79.9219,-10.0156,0.00000000,0.00000000,0.00000000,
0.773521,-0.1715,-0.9713,0.0184,-0.0062,0.0181,0.0106,-0.0014,-0.0015,-0.0028,10.3206,37.2803,12.5078,350.0625,79.9219,-10.0156,0.00000000,0.00000000,0.00000000,
0.776339,-0.1712,-0.9732,0.0173,-0.0062,0.0181,0.0106,-0.0014,-0.0015,-0.0028,10.3206,37.2803,12.5078,350.0625,79.9219,-10.0156,0.00000000,0.00000000,0.00000000,
0.793514,-0.1712,-0.9732,0.0173,-0.0062,0.0181,0.0106,-0.0109,-0.0106,-0.0001,10.3206,37.2803,12.5078,350.0625,79.9219,-10.0156,0.00000000,0.00000000,0.00000000,
0.814230,-0.1712,-0.9732,0.0173,-0.0062,0.0181,0.0106,-0.0109,-0.0106,-0.0001,10.3206,37.2803,12.5078,344.6875,79.8594,-10.0938,0.00000000,0.00000000,0.00000000,
0.824710,-0.1712,-0.9732,0.0173,-0.0042,-0.0146,-0.0060,-0.0109,-0.0106,-0.0001,10.3206,37.2803,12.5078,344.6875,79.8594,-10.0938,0.00000000,0.00000000,0.00000000,
0.830086,-0.1712,-0.9732,0.0173,-0.0042,-0.0146,-0.0060,-0.0109,-0.0106,-0.0001,9.2410,35.5308,12.4793,344.6875,79.8594,-10.0938,0.00000000,0.00000000,0.00000000,
0.840718,-0.1712,-0.9732,0.0173,-0.0042,-0.0146,-0.0060,0.0007,-0.0089,-0.0011,9.2410,35.5308,12.4793,344.6875,79.8594,-10.0938,0.00000000,0.00000000,0.00000000,
0.844846,-0.1710,-0.9728,0.0165,-0.0042,-0.0146,-0.0060,0.0007,-0.0089,-0.0011,9.2410,35.5308,12.4793,344.6875,79.8594,-10.0938,0.00000000,0.00000000,0.00000000,
0.857195,-0.1710,-0.9728,0.0165,-0.0042,-0.0146,-0.0060,0.0007,-0.0089,-0.0011,9.2410,35.5308,12.4793,344.7500,79.9531,-10.0000,0.00000000,0.00000000,0.00000000,
0.885471,-0.1710,-0.9728,0.0165,0.0062,-0.0108,-0.0169,0.0007,-0.0089,-0.0011,9.2410,35.5308,12.4793,344.7500,79.9531,-10.0000,0.00000000,0.00000000,0.00000000,
0.889826,-0.1710,-0.9728,0.0165,0.0076,-0.0100,-0.0167,0.0007,-0.0089,-0.0011,9.2410,35.5308,12.4793,344.7500,79.9531,-10.0000,0.00000000,0.00000000,0.00000000,
0.893039,-0.1710,-0.9728,0.0165,0.0076,-0.0100,-0.0167,0.0007,-0.0089,-0.0011,9.1509,35.3159,11.6773,344.7500,79.9531,-10.0000,0.00000000,0.00000000,0.00000000,
0.899265,-0.1710,-0.9728,0.0165,0.0076,-0.0100,-0.0167,0.0007,-0.0089,-0.0011,9.1509,35.3159,11.6773,344.7344,79.9375,-10.0156,0.00000000,0.00000000,0.00000000,
0.917663,-0.1703,-0.9711,0.0182,0.0076,-0.0100,-0.0167,0.0007,-0.0089,-0.0011,9.1509,35.3159,11.6773,344.7344,79.9375,-10.0156,0.00000000,0.00000000,0.00000000,
0.920855,-0.1703,-0.9711,0.0182,0.0076,-0.0100,-0.0167,0.0049,-0.0007,0.0003,9.1509,35.3159,11.6773,344.7344,79.9375,-10.0156,0.00000000,0.00000000,0.00000000,
0.939069,-0.1703,-0.9711,0.0182,0.0076,-0.0100,-0.0167,0.0049,-0.0007,0.0003,9.1509,35.3159,11.6773,344.7969,80.0156,-9.9531,0.00000000,0.00000000,0.00000000,
0.945687,-0.1703,-0.9711,0.0182,0.0004,0.0078,0.0050,0.0049,-0.0007,0.0003,9.1509,35.3159,11.6773,344.7969,80.0156,-9.9531,0.00000000,0.00000000,0.00000000,
0.949340,-0.1703,-0.9711,0.0182,0.0004,0.0078,0.0050,0.0049,-0.0007,0.0003,8.9042,35.5952,12.0889,344.7969,80.0156,-9.9531,0.00000000,0.00000000,0.00000000,
0.976463,-0.1702,-0.9724,0.0175,0.0004,0.0078,0.0050,0.0049,-0.0007,0.0003,8.9042,35.5952,12.0889,344.7969,80.0156,-9.9531,0.00000000,0.00000000,0.00000000,
0.982518,-0.1702,-0.9724,0.0175,0.0004,0.0078,0.0050,0.0049,-0.0007,0.0003,8.9042,35.5952,12.0889,344.8594,80.0469,-9.8906,0.00000000,0.00000000,0.00000000,
0.998252,-0.1702,-0.9724,0.0175,0.0004,0.0078,0.0050,-0.0007,-0.0092,0.0040,8.9042,35.5952,12.0889,344.8594,80.0469,-9.8906,0.00000000,0.00000000,0.00000000,
1.008498,-0.1702,-0.9724,0.0175,0.0158,-0.0095,-0.0095,-0.0007,-0.0092,0.0040,8.9042,35.5952,12.0889,344.8594,80.0469,-9.8906,0.00000000,0.00000000,0.00000000,
1.012057,-0.1702,-0.9724,0.0175,0.0221,-0.0098,-0.0071,-0.0007,-0.0092,0.0040,8.9042,35.5952,12.0889,344.8594,80.0469,-9.8906,0.00000000,0.00000000,0.00000000,
1.024561,-0.1702,-0.9724,0.0175,0.0221,-0.0098,-0.0071,-0.0007,-0.0092,0.0040,8.9042,35.5952,12.0889,344.7969,80.0156,-9.9531,0.00000000,0.00000000,0.00000000,
1.030457,-0.1702,-0.9724,0.0175,0.0221,-0.0098,-0.0071,-0.0007,-0.0092,0.0040,10.0146,36.5832,12.5190,344.7969,80.0156,-9.9531,0.00000000,0.00000000,0.00000000,
1.040382,-0.1702,-0.9724,0.0175,0.0221,-0.0098,-0.0071,-0.0025,-0.0097,0.0045,10.0146,36.5832,12.5190,344.7969,80.0156,-9.9531,0.00000000,0.00000000,0.00000000,
1.045704,-0.1698,-0.9763,0.0158,0.0221,-0.0098,-0.0071,-0.0025,-0.0097,0.0045,10.0146,36.5832,12.5190,344.7969,80.0156,-9.9531,0.00000000,0.00000000,0.00000000,
1.063922,-0.1698,-0.9763,0.0158,0.0221,-0.0098,-0.0071,-0.0025,-0.0097,0.0045,10.0146,36.5832,12.5190,344.7969,80.0469,-9.9062,0.00000000,0.00000000,0.00000000,
1.066701,-0.1698,-0.9763,0.0158,-0.0112,-0.0111,-0.0107,-0.0025,-0.0097,0.0045,10.0146,36.5832,12.5190,344.7969,80.0469,-9.9062,0.00000000,0.00000000,0.00000000,
1.089544,-0.1698,-0.9763,0.0158,-0.0112,-0.0111,-0.0107,-0.0025,-0.0097,0.0045,9.4046,35.8997,11.8452,344.7969,80.0469,-9.9062,0.00000000,0.00000000,0.00000000,
1.107729,-0.1698,-0.9763,0.0158,-0.0112,-0.0111,-0.0107,-0.0025,-0.0097,0.0045,9.4046,35.8997,11.8452,344.7500,80.0156,-9.9375,0.00000000,0.00000000,0.00000000,
1.111372,-0.1711,-0.9711,0.0196,-0.0112,-0.0111,-0.0107,-0.0025,-0.0097,0.0045,9.4046,35.8997,11.8452,344.7500,80.0156,-9.9375,0.00000000,0.00000000,0.00000000,
1.119040,-0.1711,-0.9711,0.0196,-0.0112,-0.0111,-0.0107,0.0048,-0.0308,-0.0040,9.4046,35.8997,11.8452,344.7500,80.0156,-9.9375,0.00000000,0.00000000,0.00000000,
1.127140,-0.1711,-0.9711,0.0196,0.0110,0.0020,0.0169,0.0048,-0.0308,-0.0040,9.4046,35.8997,11.8452,344.7500,80.0156,-9.9375,0.00000000,0.00000000,0.00000000,
1.130557,-0.1711,-0.9711,0.0196,0.0106,0.0015,0.0093,0.0048,-0.0308,-0.0040,9.4046,35.8997,11.8452,344.7500,80.0156,-9.9375,0.00000000,0.00000000,0.00000000,
1.147352,-0.1711,-0.9711,0.0196,0.0106,0.0015,0.0093,0.0048,-0.0308,-0.0040,9.4046,35.8997,11.8452,344.7500,80.0312,-9.9219,0.00000000,0.00000000,0.00000000,
1.150868,-0.1711,-0.9711,0.0196,0.0106,0.0015,0.0093,0.0048,-0.0308,-0.0040,10.1576,36.2676,12.2178,344.7500,80.0312,-9.9219,0.00000000,0.00000000,0.00000000,
1.180868,-0.1707,-0.9736,0.0182,0.0106,0.0015,0.0093,0.0048,-0.0308,-0.0040,10.1576,36.2676,12.2178,344.7500,80.0312,-9.9219,0.00000000,0.00000000,0.00000000,
1.191325,-0.1707,-0.9736,0.0182,-0.0193,0.0178,0.0017,0.0048,-0.0308,-0.0040,10.1576,36.2676,12.2178,344.7500,80.0312,-9.9219,0.00000000,0.00000000,0.00000000,
1.194776,-0.1707,-0.9736,0.0182,-0.0193,0.0178,0.0017,0.0048,-0.0308,-0.0040,10.1576,36.2676,12.2178,344.7031,80.0000,-9.9531,0.00000000,0.00000000,0.00000000,
1.200202,-0.1707,-0.9736,0.0182,-0.0193,0.0178,0.0017,0.0060,-0.0129,-0.0200,10.1576,36.2676,12.2178,344.7031,80.0000,-9.9531,0.00000000,0.00000000,0.00000000,
1.229198,-0.1707,-0.9736,0.0182,-0.0193,0.0178,0.0017,0.0060,-0.0129,-0.0200,9.9778,36.4000,12.5430,344.7031,80.0000,-9.9531,0.00000000,0.00000000,0.00000000,
1.234086,-0.1707,-0.9736,0.0182,-0.0193,0.0178,0.0017,0.0060,-0.0129,-0.0200,9.9778,36.4000,12.5430,344.8125,80.0938,-9.8594,0.00000000,0.00000000,0.00000000,
1.242898,-0.1707,-0.9736,0.0182,-0.0193,0.0178,0.0017,0.0243,0.0193,0.0342,9.9778,36.4000,12.5430,344.8125,80.0938,-9.8594,0.00000000,0.00000000,0.00000000,
1.247395,-0.1707,-0.9736,0.0182,0.0100,-0.0343,-0.0182,0.0243,0.0193,0.0342,9.9778,36.4000,12.5430,344.8125,80.0938,-9.8594,0.00000000,0.00000000,0.00000000,
1.250421,-0.1715,-0.9684,0.0199,0.0100,-0.0343,-0.0182,0.0243,0.0193,0.0342,9.9778,36.4000,12.5430,344.8125,80.0938,-9.8594,0.00000000,0.00000000,0.00000000,
1.252994,-0.1715,-0.9684,0.0199,0.0262,-0.0337,-0.0242,0.0243,0.0193,0.0342,9.9778,36.4000,12.5430,344.8125,80.0938,-9.8594,0.00000000,0.00000000,0.00000000,
1.272969,-0.1715,-0.9684,0.0199,0.0262,-0.0337,-0.0242,0.0243,0.0193,0.0342,9.9778,36.4000,12.5430,344.7188,80.0156,-9.9219,0.00000000,0.00000000,0.00000000,
1.291094,-0.1715,-0.9684,0.0199,0.0262,-0.0337,-0.0242,0.0243,0.0193,0.0342,9.1262,36.2110,12.4022,344.7188,80.0156,-9.9219,0.00000000,0.00000000,0.00000000,
1.311089,-0.1715,-0.9684,0.0199,-0.0082,0.0475,0.0145,0.0243,0.0193,0.0342,9.1262,36.2110,12.4022,344.7188,80.0156,-9.9219,0.00000000,0.00000000,0.00000000,
1.315194,-0.1715,-0.9758,0.0199,-0.0082,0.0475,0.0145,0.0243,0.0193,0.0342,9.1262,36.2110,12.4022,344.7188,80.0156,-9.9219,0.00000000,0.00000000,0.00000000,
1.317605,-0.1715,-0.9758,0.0199,-0.0082,0.0475,0.0145,0.0243,0.0193,0.0342,9.1262,36.2110,12.4022,344.6719,80.0156,-9.9375,0.00000000,0.00000000,0.00000000,
1.320526,-0.1715,-0.9758,0.0199,-0.0082,0.0475,0.0145,-0.0016,-0.0074,0.0046,9.1262,36.2110,12.4022,344.6719,80.0156,-9.9375,0.00000000,0.00000000,0.00000000,
1.350263,-0.1715,-0.9758,0.0199,-0.0082,0.0475,0.0145,-0.0016,-0.0074,0.0046,9.5402,35.9371,12.2379,344.6719,80.0156,-9.9375,0.00000000,0.00000000,0.00000000,
1.359380,-0.1715,-0.9758,0.0199,-0.0082,0.0475,0.0145,-0.0016,-0.0074,0.0046,9.5402,35.9371,12.2379,344.6719,80.0312,-9.9219,0.00000000,0.00000000,0.00000000,
1.368428,-0.1715,-0.9758,0.0199,-0.0010,-0.0283,-0.0063,-0.0016,-0.0074,0.0046,9.5402,35.9371,12.2379,344.6719,80.0312,-9.9219,0.00000000,0.00000000,0.00000000,
1.372190,-0.1715,-0.9758,0.0199,0.0060,-0.0264,-0.0085,-0.0016,-0.0074,0.0046,9.5402,35.9371,12.2379,344.6719,80.0312,-9.9219,0.00000000,0.00000000,0.00000000,
1.380970,-0.1710,-0.9718,0.0211,0.0060,-0.0264,-0.0085,-0.0016,-0.0074,0.0046,9.5402,35.9371,12.2379,344.6719,80.0312,-9.9219,0.00000000,0.00000000,0.00000000,
1.397472,-0.1710,-0.9718,0.0211,0.0060,-0.0264,-0.0085,-0.0016,-0.0074,0.0046,9.5402,35.9371,12.2379,344.5938,80.0469,-9.8906,0.00000000,0.00000000,0.00000000,
1.400774,-0.1710,-0.9718,0.0211,0.0060,-0.0264,-0.0085,0.0111,0.0158,0.0196,9.5402,35.9371,12.2379,344.5938,80.0469,-9.8906,0.00000000,0.00000000,0.00000000,
1.428728,-0.1710,-0.9718,0.0211,0.0214,0.0095,0.0065,0.0111,0.0158,0.0196,9.5402,35.9371,12.2379,344.5938,80.0469,-9.8906,0.00000000,0.00000000,0.00000000,
1.433430,-0.1710,-0.9718,0.0211,0.0214,0.0095,0.0065,0.0111,0.0158,0.0196,10.5641,37.1401,11.2673,344.5938,80.0469,-9.8906,0.00000000,0.00000000,0.00000000,
1.443015,-0.1710,-0.9718,0.0211,0.0214,0.0095,0.0065,0.0111,0.0158,0.0196,10.5641,37.1401,11.2673,344.5000,80.0312,-9.9219,0.00000000,0.00000000,0.00000000,
1.446811,-0.1710,-0.9718,0.0211,0.0214,0.0095,0.0065,0.0297,-0.0083,0.0257,10.5641,37.1401,11.2673,344.5000,80.0312,-9.9219,0.00000000,0.00000000,0.00000000,
1.449963,-0.1747,-0.9719,0.0222,0.0214,0.0095,0.0065,0.0297,-0.0083,0.0257,10.5641,37.1401,11.2673,344.5000,80.0312,-9.9219,0.00000000,0.00000000,0.00000000,
1.481539,-0.1747,-0.9719,0.0222,0.0214,0.0095,0.0065,0.0297,-0.0083,0.0257,10.5641,37.1401,11.2673,344.6719,80.1562,-9.7812,0.00000000,0.00000000,0.00000000,
1.491906,-0.1747,-0.9719,0.0222,-0.0027,0.0012,-0.0087,0.0297,-0.0083,0.0257,10.5641,37.1401,11.2673,344.6719,80.1562,-9.7812,0.00000000,0.00000000,0.00000000,
1.495379,-0.1747,-0.9719,0.0222,0.0056,-0.0007,-0.0228,0.0297,-0.0083,0.0257,10.5641,37.1401,11.2673,344.6719,80.1562,-9.7812,0.00000000,0.00000000,0.00000000,
1.497834,-0.1747,-0.9719,0.0222,0.0056,-0.0007,-0.0228,0.0297,-0.0083,0.0257,9.9139,36.3181,11.4312,344.6719,80.1562,-9.7812,0.00000000,0.00000000,0.00000000,
1.508102,-0.1760,-0.9718,0.0262,0.0056,-0.0007,-0.0228,0.0297,-0.0083,0.0257,9.9139,36.3181,11.4312,344.6719,80.1562,-9.7812,0.00000000,0.00000000,0.00000000,
1.518845,-0.1760,-0.9718,0.0262,0.0056,-0.0007,-0.0228,0.0357,-0.0073,0.0262,9.9139,36.3181,11.4312,344.6719,80.1562,-9.7812,0.00000000,0.00000000,0.00000000,
1.521962,-0.1760,-0.9718,0.0262,0.0056,-0.0007,-0.0228,0.0357,-0.0073,0.0262,9.9139,36.3181,11.4312,344.5469,79.9688,-9.9688,0.00000000,0.00000000,0.00000000,
1.548971,-0.1760,-0.9718,0.0262,0.0055,0.0001,0.0187,0.0357,-0.0073,0.0262,9.9139,36.3181,11.4312,344.5469,79.9688,-9.9688,0.00000000,0.00000000,0.00000000,
1.552585,-0.1760,-0.9718,0.0262,0.0055,0.0001,0.0187,0.0357,-0.0073,0.0262,10.4611,36.2900,12.0940,344.5469,79.9688,-9.9688,0.00000000,0.00000000,0.00000000,
1.564140,-0.1760,-0.9718,0.0262,0.0055,0.0001,0.0187,0.0357,-0.0073,0.0262,10.4611,36.2900,12.0940,344.5156,79.9531,-9.9844,0.00000000,0.00000000,0.00000000,
1.582240,-0.1791,-0.9714,0.0236,0.0055,0.0001,0.0187,0.0357,-0.0073,0.0262,10.4611,36.2900,12.0940,344.5156,79.9531,-9.9844,0.00000000,0.00000000,0.00000000,
1.600516,-0.1791,-0.9714,0.0236,0.0055,0.0001,0.0187,0.0144,0.0095,0.0376,10.4611,36.2900,12.0940,344.5156,79.9531,-9.9844,0.00000000,0.00000000,0.00000000,
1.608011,-0.1791,-0.9714,0.0236,0.0055,0.0001,0.0187,0.0144,0.0095,0.0376,10.4611,36.2900,12.0940,344.5312,79.9688,-9.9688,0.00000000,0.00000000,0.00000000,
1.611073,-0.1791,-0.9714,0.0236,-0.0117,-0.0052,-0.0143,0.0144,0.0095,0.0376,10.4611,36.2900,12.0940,344.5312,79.9688,-9.9688,0.00000000,0.00000000,0.00000000,
1.613522,-0.1791,-0.9714,0.0236,0.0020,-0.0072,-0.0223,0.0144,0.0095,0.0376,10.4611,36.2900,12.0940,344.5312,79.9688,-9.9688,0.00000000,0.00000000,0.00000000,
1.629860,-0.1791,-0.9714,0.0236,0.0020,-0.0072,-0.0223,0.0144,0.0095,0.0376,10.4404,35.8077,11.2957,344.5312,79.9688,-9.9688,0.00000000,0.00000000,0.00000000,
1.640529,-0.1793,-0.9714,0.0232,0.0020,-0.0072,-0.0223,0.0144,0.0095,0.0376,10.4404,35.8077,11.2957,344.5312,79.9688,-9.9688,0.00000000,0.00000000,0.00000000,
1.643520,-0.1793,-0.9714,0.0232,0.0020,-0.0072,-0.0223,0.0441,0.0005,0.0374,10.4404,35.8077,11.2957,344.5312,79.9688,-9.9688,0.00000000,0.00000000,0.00000000,
1.646852,-0.1793,-0.9714,0.0232,0.0020,-0.0072,-0.0223,0.0441,0.0005,0.0374,10.4404,35.8077,11.2957,344.5469,79.9531,-9.9844,0.00000000,0.00000000,0.00000000,
1.674021,-0.1793,-0.9714,0.0232,0.0058,0.0021,-0.0134,0.0441,0.0005,0.0374,10.4404,35.8077,11.2957,344.5469,79.9531,-9.9844,0.00000000,0.00000000,0.00000000,
1.692667,-0.1793,-0.9714,0.0232,0.0058,0.0021,-0.0134,0.0441,0.0005,0.0374,10.4404,35.8077,11.2957,344.5000,79.9062,-10.0312,0.00000000,0.00000000,0.00000000,
1.696655,-0.1793,-0.9714,0.0232,0.0058,0.0021,-0.0134,0.0441,0.0005,0.0374,10.3980,36.4417,11.3727,344.5000,79.9062,-10.0312,0.00000000,0.00000000,0.00000000,
1.711456,-0.1843,-0.9685,0.0345,0.0058,0.0021,-0.0134,0.0441,0.0005,0.0374,10.3980,36.4417,11.3727,344.5000,79.9062,-10.0312,0.00000000,0.00000000,0.00000000,
1.725106,-0.1843,-0.9685,0.0345,0.0058,0.0021,-0.0134,0.0534,0.0044,0.0346,10.3980,36.4417,11.3727,344.5000,79.9062,-10.0312,0.00000000,0.00000000,0.00000000,
1.729588,-0.1843,-0.9685,0.0345,0.0030,0.0164,-0.0198,0.0534,0.0044,0.0346,10.3980,36.4417,11.3727,344.5000,79.9062,-10.0312,0.00000000,0.00000000,0.00000000,
1.732724,-0.1843,-0.9685,0.0345,0.0131,0.0121,-0.0346,0.0534,0.0044,0.0346,10.3980,36.4417,11.3727,344.5000,79.9062,-10.0312,0.00000000,0.00000000,0.00000000,
1.734651,-0.1843,-0.9685,0.0345,0.0131,0.0121,-0.0346,0.0534,0.0044,0.0346,10.3980,36.4417,11.3727,344.4062,79.8125,-10.1094,0.00000000,0.00000000,0.00000000,
1.750417,-0.1843,-0.9685,0.0345,0.0131,0.0121,-0.0346,0.0534,0.0044,0.0346,9.9914,36.0937,11.0969,344.4062,79.8125,-10.1094,0.00000000,0.00000000,0.00000000,
1.762933,-0.1843,-0.9685,0.0345,0.0131,0.0121,-0.0346,0.0366,-0.0055,0.0234,9.9914,36.0937,11.0969,344.4062,79.8125,-10.1094,0.00000000,0.00000000,0.00000000,
1.773987,-0.1843,-0.9685,0.0345,0.0131,0.0121,-0.0346,0.0366,-0.0055,0.0234,9.9914,36.0937,11.0969,344.3281,79.7188,-10.1875,0.00000000,0.00000000,0.00000000,
1.782837,-0.1858,-0.9666,0.0365,0.0131,0.0121,-0.0346,0.0366,-0.0055,0.0234,9.9914,36.0937,11.0969,344.3281,79.7188,-10.1875,0.00000000,0.00000000,0.00000000,
1.789900,-0.1858,-0.9666,0.0365,0.0026,0.0088,-0.0114,0.0366,-0.0055,0.0234,9.9914,36.0937,11.0969,344.3281,79.7188,-10.1875,0.00000000,0.00000000,0.00000000,
1.814012,-0.1858,-0.9666,0.0365,0.0026,0.0088,-0.0114,0.0366,-0.0055,0.0234,9.9914,36.0937,11.0969,344.2656,79.6562,-10.2500,0.00000000,0.00000000,0.00000000,
1.829840,-0.1858,-0.9666,0.0365,0.0026,0.0088,-0.0114,0.0366,-0.0055,0.0234,10.2308,35.9546,11.2424,344.2656,79.6562,-10.2500,0.00000000,0.00000000,0.00000000,
1.841548,-0.1858,-0.9666,0.0365,0.0026,0.0088,-0.0114,-0.0066,-0.0034,0.0025,10.2308,35.9546,11.2424,344.2656,79.6562,-10.2500,0.00000000,0.00000000,0.00000000,
1.845415,-0.1854,-0.9695,0.0340,0.0026,0.0088,-0.0114,-0.0066,-0.0034,0.0025,10.2308,35.9546,11.2424,344.2656,79.6562,-10.2500,0.00000000,0.00000000,0.00000000,
1.851701,-0.1854,-0.9695,0.0340,-0.0158,0.0212,0.0289,-0.0066,-0.0034,0.0025,10.2308,35.9546,11.2424,344.2656,79.6562,-10.2500,0.00000000,0.00000000,0.00000000,
1.854752,-0.1854,-0.9695,0.0340,-0.0142,0.0190,0.0285,-0.0066,-0.0034,0.0025,10.2308,35.9546,11.2424,344.2656,79.6562,-10.2500,0.00000000,0.00000000,0.00000000,
1.857170,-0.1854,-0.9695,0.0340,-0.0142,0.0190,0.0285,-0.0066,-0.0034,0.0025,10.2308,35.9546,11.2424,344.1562,79.5156,-10.3906,0.00000000,0.00000000,0.00000000,
1.890209,-0.1854,-0.9695,0.0340,-0.0142,0.0190,0.0285,-0.0066,-0.0034,0.0025,10.3659,36.1619,11.2750,344.1562,79.5156,-10.3906,0.00000000,0.00000000,0.00000000,
1.896927,-0.1854,-0.9695,0.0340,-0.0142,0.0190,0.0285,-0.0066,-0.0034,0.0025,10.3659,36.1619,11.2750,344.1406,79.4531,-10.4375,0.00000000,0.00000000,0.00000000,
1.912365,-0.1854,-0.9695,0.0340,-0.0066,-0.0002,0.0308,-0.0066,-0.0034,0.0025,10.3659,36.1619,11.2750,344.1406,79.4531,-10.4375,0.00000000,0.00000000,0.00000000,
1.916249,-0.1853,-0.9708,0.0341,-0.0066,-0.0002,0.0308,-0.0066,-0.0034,0.0025,10.3659,36.1619,11.2750,344.1406,79.4531,-10.4375,0.00000000,0.00000000,0.00000000,
1.924502,-0.1853,-0.9708,0.0341,-0.0066,-0.0002,0.0308,0.0081,-0.0095,0.0067,10.3659,36.1619,11.2750,344.1406,79.4531,-10.4375,0.00000000,0.00000000,0.00000000,
1.940554,-0.1853,-0.9708,0.0341,-0.0066,-0.0002,0.0308,0.0081,-0.0095,0.0067,10.3659,36.1619,11.2750,344.0938,79.3906,-10.5000,0.00000000,0.00000000,0.00000000,
1.950763,-0.1853,-0.9708,0.0341,-0.0066,-0.0002,0.0308,0.0081,-0.0095,0.0067,10.8417,36.6984,10.4515,344.0938,79.3906,-10.5000,0.00000000,0.00000000,0.00000000,
1.963542,-0.1853,-0.9708,0.0341,-0.0066,-0.0002,0.0308,0.0258,-0.0059,0.0150,10.8417,36.6984,10.4515,344.0938,79.3906,-10.5000,0.00000000,0.00000000,0.00000000,
1.974516,-0.1853,-0.9708,0.0341,0.0046,-0.0333,-0.0074,0.0258,-0.0059,0.0150,10.8417,36.6984,10.4515,344.0938,79.3906,-10.5000,0.00000000,0.00000000,0.00000000,
1.977378,-0.1853,-0.9708,0.0341,0.0092,-0.0309,-0.0159,0.0258,-0.0059,0.0150,10.8417,36.6984,10.4515,344.0938,79.3906,-10.5000,0.00000000,0.00000000,0.00000000,
1.980519,-0.1885,-0.9715,0.0336,0.0092,-0.0309,-0.0159,0.0258,-0.0059,0.0150,10.8417,36.6984,10.4515,344.0938,79.3906,-10.5000,0.00000000,0.00000000,0.00000000,
1.983066,-0.1885,-0.9715,0.0336,0.0092,-0.0309,-0.0159,0.0258,-0.0059,0.0150,10.8417,36.6984,10.4515,344.0000,79.2656,-10.6094,0.00000000,0.00000000,0.00000000,
2.022260,-0.1885,-0.9715,0.0336,0.0092,-0.0309,-0.0159,0.0258,-0.0059,0.0150,10.8417,36.6984,10.4515,344.0000,79.1719,-10.6562,0.00000000,0.00000000,0.00000000,
2.030915,-0.1885,-0.9715,0.0336,0.0092,-0.0309,-0.0159,0.0258,-0.0059,0.0150,10.6117,36.0846,11.3613,344.0000,79.1719,-10.6562,0.00000000,0.00000000,0.00000000,
2.035213,-0.1885,-0.9715,0.0336,-0.0308,-0.0073,-0.0248,0.0258,-0.0059,0.0150,10.6117,36.0846,11.3613,344.0000,79.1719,-10.6562,0.00000000,0.00000000,0.00000000,
2.041707,-0.1885,-0.9715,0.0336,-0.0308,-0.0073,-0.0248,0.0258,0.0194,0.0195,10.6117,36.0846,11.3613,344.0000,79.1719,-10.6562,0.00000000,0.00000000,0.00000000,
2.045674,-0.1865,-0.9678,0.0402,-0.0308,-0.0073,-0.0248,0.0258,0.0194,0.0195,10.6117,36.0846,11.3613,344.0000,79.1719,-10.6562,0.00000000,0.00000000,0.00000000,
2.064065,-0.1865,-0.9678,0.0402,-0.0308,-0.0073,-0.0248,0.0258,0.0194,0.0195,10.6117,36.0846,11.3613,343.8750,79.0312,-10.7969,0.00000000,0.00000000,0.00000000,
2.089738,-0.1865,-0.9678,0.0402,-0.0308,-0.0073,-0.0248,0.0258,0.0194,0.0195,9.3190,35.6306,11.3668,343.8750,79.0312,-10.7969,0.00000000,0.00000000,0.00000000,
2.094389,-0.1865,-0.9678,0.0402,0.0192,0.0215,0.0687,0.0258,0.0194,0.0195,9.3190,35.6306,11.3668,343.8750,79.0312,-10.7969,0.00000000,0.00000000,0.00000000,
2.096700,-0.1865,-0.9678,0.0402,0.0183,0.0191,0.0681,0.0258,0.0194,0.0195,9.3190,35.6306,11.3668,343.8750,79.0312,-10.7969,0.00000000,0.00000000,0.00000000,
2.106945,-0.1865,-0.9678,0.0402,0.0183,0.0191,0.0681,0.0258,0.0194,0.0195,9.3190,35.6306,11.3668,343.8906,79.0469,-10.7812,0.00000000,0.00000000,0.00000000,
2.114304,-0.1887,-0.9641,0.0399,0.0183,0.0191,0.0681,0.0258,0.0194,0.0195,9.3190,35.6306,11.3668,343.8906,79.0469,-10.7812,0.00000000,0.00000000,0.00000000,
2.123750,-0.1887,-0.9641,0.0399,0.0183,0.0191,0.0681,-0.0292,0.0278,-0.0018,9.3190,35.6306,11.3668,343.8906,79.0469,-10.7812,0.00000000,0.00000000,0.00000000,
2.147435,-0.1887,-0.9641,0.0399,0.0183,0.0191,0.0681,-0.0292,0.0278,-0.0018,9.3190,35.6306,11.3668,343.8594,79.0312,-10.7812,0.00000000,0.00000000,0.00000000,
2.151390,-0.1887,-0.9641,0.0399,0.0183,0.0191,0.0681,-0.0292,0.0278,-0.0018,10.3635,36.0167,11.9953,343.8594,79.0312,-10.7812,0.00000000,0.00000000,0.00000000,
2.154706,-0.1887,-0.9641,0.0399,-0.0325,0.0266,0.0271,-0.0292,0.0278,-0.0018,10.3635,36.0167,11.9953,343.8594,79.0312,-10.7812,0.00000000,0.00000000,0.00000000,
2.163840,-0.1887,-0.9641,0.0399,-0.0325,0.0266,0.0271,-0.0857,0.0596,-0.0268,10.3635,36.0167,11.9953,343.8594,79.0312,-10.7812,0.00000000,0.00000000,0.00000000,
2.174463,-0.1834,-0.9654,0.0278,-0.0325,0.0266,0.0271,-0.0857,0.0596,-0.0268,10.3635,36.0167,11.9953,343.8594,79.0312,-10.7812,0.00000000,0.00000000,0.00000000,
2.190271,-0.1834,-0.9654,0.0278,-0.0325,0.0266,0.0271,-0.0857,0.0596,-0.0268,10.3635,36.0167,11.9953,343.8281,79.0312,-10.7812,0.00000000,0.00000000,0.00000000,
2.216184,-0.1834,-0.9654,0.0278,0.0499,0.0140,0.0393,-0.0857,0.0596,-0.0268,10.3635,36.0167,11.9953,343.8281,79.0312,-10.7812,0.00000000,0.00000000,0.00000000,
2.219704,-0.1834,-0.9654,0.0278,0.0389,0.0145,0.0675,-0.0857,0.0596,-0.0268,10.3635,36.0167,11.9953,343.8281,79.0312,-10.7812,0.00000000,0.00000000,0.00000000,
2.229699,-0.1834,-0.9654,0.0278,0.0389,0.0145,0.0675,-0.0857,0.0596,-0.0268,10.1411,35.2178,10.5669,343.8281,79.0312,-10.7812,0.00000000,0.00000000,0.00000000,
2.234458,-0.1834,-0.9654,0.0278,0.0389,0.0145,0.0675,-0.0857,0.0596,-0.0268,10.1411,35.2178,10.5669,343.8438,79.0469,-10.7656,0.00000000,0.00000000,0.00000000,
2.243017,-0.1849,-0.9679,0.0329,0.0389,0.0145,0.0675,-0.0857,0.0596,-0.0268,10.1411,35.2178,10.5669,343.8438,79.0469,-10.7656,0.00000000,0.00000000,0.00000000,
2.247007,-0.1849,-0.9679,0.0329,0.0389,0.0145,0.0675,-0.0900,0.0391,0.0014,10.1411,35.2178,10.5669,343.8438,79.0469,-10.7656,0.00000000,0.00000000,0.00000000,
2.272893,-0.1849,-0.9679,0.0329,0.0389,0.0145,0.0675,-0.0900,0.0391,0.0014,10.1411,35.2178,10.5669,343.7188,78.8906,-10.9062,0.00000000,0.00000000,0.00000000,
2.277149,-0.1849,-0.9679,0.0329,-0.0255,0.0433,0.0278,-0.0900,0.0391,0.0014,10.1411,35.2178,10.5669,343.7188,78.8906,-10.9062,0.00000000,0.00000000,0.00000000,
2.290796,-0.1849,-0.9679,0.0329,-0.0255,0.0433,0.0278,-0.0900,0.0391,0.0014,10.8756,36.7334,12.1701,343.7188,78.8906,-10.9062,0.00000000,0.00000000,0.00000000,
2.313214,-0.1849,-0.9679,0.0329,-0.0255,0.0433,0.0278,-0.0900,0.0391,0.0014,10.8756,36.7334,12.1701,343.8281,78.9375,-10.8281,0.00000000,0.00000000,0.00000000,
2.317152,-0.1892,-0.9717,0.0119,-0.0255,0.0433,0.0278,-0.0900,0.0391,0.0014,10.8756,36.7334,12.1701,343.8281,78.9375,-10.8281,0.00000000,0.00000000,0.00000000,
2.324684,-0.1892,-0.9717,0.0119,-0.0255,0.0433,0.0278,-0.1390,0.0370,-0.0170,10.8756,36.7334,12.1701,343.8281,78.9375,-10.8281,0.00000000,0.00000000,0.00000000,
2.339724,-0.1892,-0.9717,0.0119,-0.0640,-0.0129,-0.0875,-0.1390,0.0370,-0.0170,10.8756,36.7334,12.1701,343.8281,78.9375,-10.8281,0.00000000,0.00000000,0.00000000,
2.342978,-0.1892,-0.9717,0.0119,-0.0676,-0.0085,-0.0144,-0.1390,0.0370,-0.0170,10.8756,36.7334,12.1701,343.8281,78.9375,-10.8281,0.00000000,0.00000000,0.00000000,
2.349964,-0.1892,-0.9717,0.0119,-0.0676,-0.0085,-0.0144,-0.1390,0.0370,-0.0170,10.4366,36.9037,11.6594,343.8281,78.9375,-10.8281,0.00000000,0.00000000,0.00000000,
2.356913,-0.1892,-0.9717,0.0119,-0.0676,-0.0085,-0.0144,-0.1390,0.0370,-0.0170,10.4366,36.9037,11.6594,343.8125,78.8594,-10.8906,0.00000000,0.00000000,0.00000000,
2.363385,-0.1892,-0.9717,0.0119,-0.0676,-0.0085,-0.0144,-0.1505,0.0570,-0.0086,10.4366,36.9037,11.6594,343.8125,78.8594,-10.8906,0.00000000,0.00000000,0.00000000,
2.376809,-0.1871,-0.9702,0.0029,-0.0676,-0.0085,-0.0144,-0.1505,0.0570,-0.0086,10.4366,36.9037,11.6594,343.8125,78.8594,-10.8906,0.00000000,0.00000000,0.00000000,
2.393463,-0.1871,-0.9702,0.0029,0.0157,0.0078,0.1423,-0.1505,0.0570,-0.0086,10.4366,36.9037,11.6594,343.8125,78.8594,-10.8906,0.00000000,0.00000000,0.00000000,
2.396687,-0.1871,-0.9702,0.0029,0.0157,0.0078,0.1423,-0.1505,0.0570,-0.0086,10.4366,36.9037,11.6594,343.7031,78.7500,-11.0469,0.00000000,0.00000000,0.00000000,
2.431237,-0.1871,-0.9702,0.0029,0.0157,0.0078,0.1423,-0.1505,0.0570,-0.0086,9.9368,36.5361,12.5275,343.7031,78.7500,-11.0469,0.00000000,0.00000000,0.00000000,
2.441255,-0.1871,-0.9702,0.0029,0.0157,0.0078,0.1423,-0.1505,0.0570,-0.0086,9.9368,36.5361,12.5275,343.8594,78.8125,-10.9688,0.00000000,0.00000000,0.00000000,
2.445672,-0.1862,-0.9722,-0.0092,0.0157,0.0078,0.1423,-0.1505,0.0570,-0.0086,9.9368,36.5361,12.5275,343.8594,78.8125,-10.9688,0.00000000,0.00000000,0.00000000,
2.448532,-0.1862,-0.9722,-0.0092,0.0157,0.0078,0.1423,-0.0126,0.0050,-0.0380,9.9368,36.5361,12.5275,343.8594,78.8125,-10.9688,0.00000000,0.00000000,0.00000000,
2.456473,-0.1862,-0.9722,-0.0092,-0.0553,-0.0233,-0.1256,-0.0126,0.0050,-0.0380,9.9368,36.5361,12.5275,343.8594,78.8125,-10.9688,0.00000000,0.00000000,0.00000000,
2.459738,-0.1862,-0.9722,-0.0092,-0.0657,-0.0176,-0.1219,-0.0126,0.0050,-0.0380,9.9368,36.5361,12.5275,343.8594,78.8125,-10.9688,0.00000000,0.00000000,0.00000000,
2.481394,-0.1862,-0.9722,-0.0092,-0.0657,-0.0176,-0.1219,-0.0126,0.0050,-0.0380,9.9368,36.5361,12.5275,344.2656,79.1562,-10.6719,0.00000000,0.00000000,0.00000000,
2.489285,-0.1862,-0.9722,-0.0092,-0.0657,-0.0176,-0.1219,-0.0126,0.0050,-0.0380,10.0682,36.4868,12.8219,344.2656,79.1562,-10.6719,0.00000000,0.00000000,0.00000000,
2.516491,-0.1862,-0.9722,-0.0092,-0.0117,-0.0081,-0.0856,-0.0126,0.0050,-0.0380,10.0682,36.4868,12.8219,344.2656,79.1562,-10.6719,0.00000000,0.00000000,0.00000000,
2.520286,-0.1789,-0.9745,0.0129,-0.0117,-0.0081,-0.0856,-0.0126,0.0050,-0.0380,10.0682,36.4868,12.8219,344.2656,79.1562,-10.6719,0.00000000,0.00000000,0.00000000,
2.523359,-0.1789,-0.9745,0.0129,-0.0117,-0.0081,-0.0856,-0.0126,0.0050,-0.0380,10.0682,36.4868,12.8219,344.2188,79.1094,-10.7656,0.00000000,0.00000000,0.00000000,
2.525625,-0.1789,-0.9745,0.0129,-0.0117,-0.0081,-0.0856,0.1307,-0.0398,-0.0294,10.0682,36.4868,12.8219,344.2188,79.1094,-10.7656,0.00000000,0.00000000,0.00000000,
2.549586,-0.1789,-0.9745,0.0129,-0.0117,-0.0081,-0.0856,0.1307,-0.0398,-0.0294,10.3116,36.0108,11.8195,344.2188,79.1094,-10.7656,0.00000000,0.00000000,0.00000000,
2.564460,-0.1789,-0.9745,0.0129,-0.0117,-0.0081,-0.0856,0.1307,-0.0398,-0.0294,10.3116,36.0108,11.8195,344.1719,79.0469,-10.8750,0.00000000,0.00000000,0.00000000,
2.567968,-0.1789,-0.9745,0.0129,-0.0117,-0.0081,-0.0856,0.1455,-0.0496,0.0312,10.3116,36.0108,11.8195,344.1719,79.0469,-10.8750,0.00000000,0.00000000,0.00000000,
2.577715,-0.1789,-0.9745,0.0129,0.0408,-0.0385,0.0084,0.1455,-0.0496,0.0312,10.3116,36.0108,11.8195,344.1719,79.0469,-10.8750,0.00000000,0.00000000,0.00000000,
2.581251,-0.1814,-0.9683,0.0173,0.0408,-0.0385,0.0084,0.1455,-0.0496,0.0312,10.3116,36.0108,11.8195,344.1719,79.0469,-10.8750,0.00000000,0.00000000,0.00000000,
2.583457,-0.1814,-0.9683,0.0173,0.0469,-0.0371,-0.0436,0.1455,-0.0496,0.0312,10.3116,36.0108,11.8195,344.1719,79.0469,-10.8750,0.00000000,0.00000000,0.00000000,
2.606667,-0.1814,-0.9683,0.0173,0.0469,-0.0371,-0.0436,0.1455,-0.0496,0.0312,10.3116,36.0108,11.8195,344.2656,79.1406,-10.8281,0.00000000,0.00000000,0.00000000,
2.631439,-0.1814,-0.9683,0.0173,0.0469,-0.0371,-0.0436,0.1455,-0.0496,0.0312,10.7792,36.3615,12.3154,344.2656,79.1406,-10.8281,0.00000000,0.00000000,0.00000000,
2.639954,-0.1814,-0.9683,0.0173,0.0082,0.0258,-0.0391,0.1455,-0.0496,0.0312,10.7792,36.3615,12.3154,344.2656,79.1406,-10.8281,0.00000000,0.00000000,0.00000000,
2.645309,-0.1814,-0.9683,0.0173,0.0082,0.0258,-0.0391,0.1026,-0.0357,0.0059,10.7792,36.3615,12.3154,344.2656,79.1406,-10.8281,0.00000000,0.00000000,0.00000000,
2.648055,-0.1806,-0.9702,0.0279,0.0082,0.0258,-0.0391,0.1026,-0.0357,0.0059,10.7792,36.3615,12.3154,344.2656,79.1406,-10.8281,0.00000000,0.00000000,0.00000000,
2.650017,-0.1806,-0.9702,0.0279,0.0082,0.0258,-0.0391,0.1026,-0.0357,0.0059,10.7792,36.3615,12.3154,344.3281,79.1562,-10.8281,0.00000000,0.00000000,0.00000000,
2.689015,-0.1806,-0.9702,0.0279,0.0082,0.0258,-0.0391,0.1026,-0.0357,0.0059,10.7792,36.3615,12.3154,344.2812,100.8906,-10.8906,0.00000000,0.00000000,0.00000000,
2.693385,-0.1806,-0.9702,0.0279,0.0082,0.0258,-0.0391,0.1026,-0.0357,0.0059,10.2590,36.4037,11.2450,344.2812,100.8906,-10.8906,0.00000000,0.00000000,0.00000000,
2.698524,-0.1806,-0.9702,0.0279,0.0223,0.0036,0.0127,0.1026,-0.0357,0.0059,10.2590,36.4037,11.2450,344.2812,100.8906,-10.8906,0.00000000,0.00000000,0.00000000,
2.702344,-0.1806,-0.9702,0.0279,0.0275,0.0009,-0.0190,0.1026,-0.0357,0.0059,10.2590,36.4037,11.2450,344.2812,100.8906,-10.8906,0.00000000,0.00000000,0.00000000,
2.705724,-0.1831,-0.9719,0.0343,0.0275,0.0009,-0.0190,0.1026,-0.0357,0.0059,10.2590,36.4037,11.2450,344.2812,100.8906,-10.8906,0.00000000,0.00000000,0.00000000,
2.726198,-0.1831,-0.9719,0.0343,0.0275,0.0009,-0.0190,0.0856,-0.0319,0.0268,10.2590,36.4037,11.2450,344.2812,100.8906,-10.8906,0.00000000,0.00000000,0.00000000,
2.729935,-0.1831,-0.9719,0.0343,0.0275,0.0009,-0.0190,0.0856,-0.0319,0.0268,10.2590,36.4037,11.2450,344.4219,100.7500,-10.7500,0.00000000,0.00000000,0.00000000,
2.749899,-0.1831,-0.9719,0.0343,0.0275,0.0009,-0.0190,0.0856,-0.0319,0.0268,10.3910,36.3558,11.5632,344.4219,100.7500,-10.7500,0.00000000,0.00000000,0.00000000,
2.758887,-0.1831,-0.9719,0.0343,0.0116,-0.0220,-0.0041,0.0856,-0.0319,0.0268,10.3910,36.3558,11.5632,344.4219,100.7500,-10.7500,0.00000000,0.00000000,0.00000000,
2.766544,-0.1831,-0.9719,0.0343,0.0116,-0.0220,-0.0041,0.1102,-0.0334,0.0476,10.3910,36.3558,11.5632,344.4219,100.7500,-10.7500,0.00000000,0.00000000,0.00000000,
2.774543,-0.1831,-0.9719,0.0343,0.0116,-0.0220,-0.0041,0.1102,-0.0334,0.0476,10.3910,36.3558,11.5632,344.6094,79.4688,-10.5312,0.00000000,0.00000000,0.00000000,
2.779422,-0.1854,-0.9679,0.0395,0.0116,-0.0220,-0.0041,0.1102,-0.0334,0.0476,10.3910,36.3558,11.5632,344.6094,79.4688,-10.5312,0.00000000,0.00000000,0.00000000,
2.814278,-0.1854,-0.9679,0.0395,0.0116,-0.0220,-0.0041,0.1102,-0.0334,0.0476,10.3910,36.3558,11.5632,344.5469,79.4531,-10.5312,0.00000000,0.00000000,0.00000000,
2.823301,-0.1854,-0.9679,0.0395,0.0269,0.0141,0.0050,0.1102,-0.0334,0.0476,10.3910,36.3558,11.5632,344.5469,79.4531,-10.5312,0.00000000,0.00000000,0.00000000,
2.826760,-0.1854,-0.9679,0.0395,0.0394,0.0079,-0.0345,0.1102,-0.0334,0.0476,10.3910,36.3558,11.5632,344.5469,79.4531,-10.5312,0.00000000,0.00000000,0.00000000,
2.831021,-0.1854,-0.9679,0.0395,0.0394,0.0079,-0.0345,0.1102,-0.0334,0.0476,10.1619,35.7829,10.2310,344.5469,79.4531,-10.5312,0.00000000,0.00000000,0.00000000,
2.847056,-0.1854,-0.9679,0.0395,0.0394,0.0079,-0.0345,0.0868,-0.0378,0.0443,10.1619,35.7829,10.2310,344.5469,79.4531,-10.5312,0.00000000,0.00000000,0.00000000,
2.850418,-0.1879,-0.9675,0.0494,0.0394,0.0079,-0.0345,0.0868,-0.0378,0.0443,10.1619,35.7829,10.2310,344.5469,79.4531,-10.5312,0.00000000,0.00000000,0.00000000,
2.858815,-0.1879,-0.9675,0.0494,0.0394,0.0079,-0.0345,0.0868,-0.0378,0.0443,10.1619,35.7829,10.2310,344.4375,79.3750,-10.5938,0.00000000,0.00000000,0.00000000,
2.878849,-0.1879,-0.9675,0.0494,0.0052,0.0115,0.0135,0.0868,-0.0378,0.0443,10.1619,35.7829,10.2310,344.4375,79.3750,-10.5938,0.00000000,0.00000000,0.00000000,
2.889192,-0.1879,-0.9675,0.0494,0.0052,0.0115,0.0135,0.0868,-0.0378,0.0443,10.7675,36.4375,10.0932,344.4375,79.3750,-10.5938,0.00000000,0.00000000,0.00000000,
2.897280,-0.1879,-0.9675,0.0494,0.0052,0.0115,0.0135,0.0868,-0.0378,0.0443,10.7675,36.4375,10.0932,344.3750,79.2969,-10.6094,0.00000000,0.00000000,0.00000000,
2.907472,-0.1925,-0.9662,0.0511,0.0052,0.0115,0.0135,0.0868,-0.0378,0.0443,10.7675,36.4375,10.0932,344.3750,79.2969,-10.6094,0.00000000,0.00000000,0.00000000,
2.927891,-0.1925,-0.9662,0.0511,0.0052,0.0115,0.0135,0.0539,-0.0228,0.0689,10.7675,36.4375,10.0932,344.3750,79.2969,-10.6094,0.00000000,0.00000000,0.00000000,
2.941873,-0.1925,-0.9662,0.0511,0.0253,0.0016,0.0475,0.0539,-0.0228,0.0689,10.7675,36.4375,10.0932,344.3750,79.2969,-10.6094,0.00000000,0.00000000,0.00000000,
2.945244,-0.1925,-0.9662,0.0511,0.0487,-0.0046,0.0281,0.0539,-0.0228,0.0689,10.7675,36.4375,10.0932,344.3750,79.2969,-10.6094,0.00000000,0.00000000,0.00000000,
2.947699,-0.1925,-0.9662,0.0511,0.0487,-0.0046,0.0281,0.0539,-0.0228,0.0689,10.7675,36.4375,10.0932,344.3750,79.3125,-10.5781,0.00000000,0.00000000,0.00000000,
2.949954,-0.1925,-0.9662,0.0511,0.0487,-0.0046,0.0281,0.0539,-0.0228,0.0689,10.3017,36.4966,10.6601,344.3750,79.3125,-10.5781,0.00000000,0.00000000,0.00000000,
2.967800,-0.1925,-0.9662,0.0511,0.0487,-0.0046,0.0281,0.0005,-0.0145,0.0774,10.3017,36.4966,10.6601,344.3750,79.3125,-10.5781,0.00000000,0.00000000,0.00000000,
2.977463,-0.1962,-0.9686,0.0606,0.0487,-0.0046,0.0281,0.0005,-0.0145,0.0774,10.3017,36.4966,10.6601,344.3750,79.3125,-10.5781,0.00000000,0.00000000,0.00000000,
2.982303,-0.1962,-0.9686,0.0606,0.0487,-0.0046,0.0281,0.0005,-0.0145,0.0774,10.3017,36.4966,10.6601,344.2969,79.2344,-10.6250,0.00000000,0.00000000,0.00000000,
3.000796,-0.1962,-0.9686,0.0606,-0.0015,0.0033,-0.0020,0.0005,-0.0145,0.0774,10.3017,36.4966,10.6601,344.2969,79.2344,-10.6250,0.00000000,0.00000000,0.00000000,
3.023728,-0.1962,-0.9686,0.0606,-0.0015,0.0033,-0.0020,0.0005,-0.0145,0.0774,10.3017,36.4966,10.6601,344.2031,79.1250,-10.6875,0.00000000,0.00000000,0.00000000,
3.029982,-0.1962,-0.9686,0.0606,-0.0015,0.0033,-0.0020,0.0005,-0.0145,0.0774,10.9444,36.5569,10.1709,344.2031,79.1250,-10.6875,0.00000000,0.00000000,0.00000000,
3.047825,-0.1962,-0.9686,0.0606,-0.0015,0.0033,-0.0020,-0.0712,0.0248,0.1457,10.9444,36.5569,10.1709,344.2031,79.1250,-10.6875,0.00000000,0.00000000,0.00000000,
3.052224,-0.2072,-0.9615,0.0556,-0.0015,0.0033,-0.0020,-0.0712,0.0248,0.1457,10.9444,36.5569,10.1709,344.2031,79.1250,-10.6875,0.00000000,0.00000000,0.00000000,
3.058111,-0.2072,-0.9615,0.0556,0.0200,-0.0207,0.0807,-0.0712,0.0248,0.1457,10.9444,36.5569,10.1709,344.2031,79.1250,-10.6875,0.00000000,0.00000000,0.00000000,
3.059483,-0.2072,-0.9615,0.0556,0.0688,-0.0277,0.1040,-0.0712,0.0248,0.1457,10.9444,36.5569,10.1709,344.2031,79.1250,-10.6875,0.00000000,0.00000000,0.00000000,
3.062637,-0.2072,-0.9615,0.0556,0.0688,-0.0277,0.1040,-0.0712,0.0248,0.1457,10.9444,36.5569,10.1709,344.0625,78.9688,-10.7969,0.00000000,0.00000000,0.00000000,
3.090013,-0.2072,-0.9615,0.0556,0.0688,-0.0277,0.1040,-0.0712,0.0248,0.1457,11.4018,36.3920,10.6643,344.0625,78.9688,-10.7969,0.00000000,0.00000000,0.00000000,
3.107257,-0.2072,-0.9615,0.0556,0.0688,-0.0277,0.1040,-0.0712,0.0248,0.1457,11.4018,36.3920,10.6643,343.8438,78.7500,-10.9531,0.00000000,0.00000000,0.00000000,
3.109987,-0.2204,-0.9558,0.0426,0.0688,-0.0277,0.1040,-0.0712,0.0248,0.1457,11.4018,36.3920,10.6643,343.8438,78.7500,-10.9531,0.00000000,0.00000000,0.00000000,
3.123558,-0.2204,-0.9558,0.0426,0.0249,0.0141,0.1023,-0.0712,0.0248,0.1457,11.4018,36.3920,10.6643,343.8438,78.7500,-10.9531,0.00000000,0.00000000,0.00000000,
3.128614,-0.2204,-0.9558,0.0426,0.0249,0.0141,0.1023,-0.1439,0.0601,0.1398,11.4018,36.3920,10.6643,343.8438,78.7500,-10.9531,0.00000000,0.00000000,0.00000000,
3.149292,-0.2204,-0.9558,0.0426,0.0249,0.0141,0.1023,-0.1439,0.0601,0.1398,11.4018,36.3920,10.6643,343.7656,78.6562,-10.9844,0.00000000,0.00000000,0.00000000,
3.152760,-0.2204,-0.9558,0.0426,0.0249,0.0141,0.1023,-0.1439,0.0601,0.1398,11.6689,36.3635,12.2021,343.7656,78.6562,-10.9844,0.00000000,0.00000000,0.00000000,
3.169192,-0.2204,-0.9558,0.0426,0.0249,0.0141,0.1023,-0.2071,0.7712,0.0949,11.6689,36.3635,12.2021,343.7656,78.6562,-10.9844,0.00000000,0.00000000,0.00000000,
3.182593,-0.2204,-0.9558,0.0426,-0.1169,0.1080,0.0768,-0.2071,0.7712,0.0949,11.6689,36.3635,12.2021,343.7656,78.6562,-10.9844,0.00000000,0.00000000,0.00000000,
3.185668,-0.2410,-0.9508,0.0310,-0.1169,0.1080,0.0768,-0.2071,0.7712,0.0949,11.6689,36.3635,12.2021,343.7656,78.6562,-10.9844,0.00000000,0.00000000,0.00000000,
3.187927,-0.2410,-0.9508,0.0310,-0.0672,0.0913,0.2140,-0.2071,0.7712,0.0949,11.6689,36.3635,12.2021,343.7656,78.6562,-10.9844,0.00000000,0.00000000,0.00000000,
3.190132,-0.2410,-0.9508,0.0310,-0.0672,0.0913,0.2140,-0.2071,0.7712,0.0949,11.6689,36.3635,12.2021,343.6406,78.5000,-11.0781,0.00000000,0.00000000,0.00000000,
3.229816,-0.2410,-0.9508,0.0310,-0.0672,0.0913,0.2140,-0.2071,0.7712,0.0949,11.2353,35.6412,13.0881,343.6406,78.5000,-11.0781,0.00000000,0.00000000,0.00000000,
3.235568,-0.2410,-0.9508,0.0310,-0.0672,0.0913,0.2140,-0.2071,0.7712,0.0949,11.2353,35.6412,13.0881,343.3281,78.2500,-11.3594,0.00000000,0.00000000,0.00000000,
3.246251,-0.2410,-0.9508,0.0310,-0.0668,0.0470,0.3359,-0.2071,0.7712,0.0949,11.2353,35.6412,13.0881,343.3281,78.2500,-11.3594,0.00000000,0.00000000,0.00000000,
3.252326,-0.2529,-0.9527,0.0423,-0.0668,0.0470,0.3359,-0.2071,0.7712,0.0949,11.2353,35.6412,13.0881,343.3281,78.2500,-11.3594,0.00000000,0.00000000,0.00000000,
3.255170,-0.2529,-0.9527,0.0423,-0.0668,0.0470,0.3359,-0.3164,1.2657,0.0650,11.2353,35.6412,13.0881,343.3281,78.2500,-11.3594,0.00000000,0.00000000,0.00000000,
3.272168,-0.2529,-0.9527,0.0423,-0.0668,0.0470,0.3359,-0.3164,1.2657,0.0650,11.2353,35.6412,13.0881,343.2344,78.0938,-11.4219,0.00000000,0.00000000,0.00000000,
3.290013,-0.2529,-0.9527,0.0423,-0.0668,0.0470,0.3359,-0.3164,1.2657,0.0650,9.6129,34.8979,15.4953,343.2344,78.0938,-11.4219,0.00000000,0.00000000,0.00000000,
3.306785,-0.2529,-0.9527,0.0423,-0.2268,0.0558,0.5693,-0.3164,1.2657,0.0650,9.6129,34.8979,15.4953,343.2344,78.0938,-11.4219,0.00000000,0.00000000,0.00000000,
3.309800,-0.2529,-0.9527,0.0423,-0.1928,0.0412,0.7148,-0.3164,1.2657,0.0650,9.6129,34.8979,15.4953,343.2344,78.0938,-11.4219,0.00000000,0.00000000,0.00000000,
3.312314,-0.3023,-0.9596,-0.0269,-0.1928,0.0412,0.7148,-0.3164,1.2657,0.0650,9.6129,34.8979,15.4953,343.2344,78.0938,-11.4219,0.00000000,0.00000000,0.00000000,
3.314569,-0.3023,-0.9596,-0.0269,-0.1928,0.0412,0.7148,-0.3164,1.2657,0.0650,9.6129,34.8979,15.4953,342.8750,77.7969,-11.8125,0.00000000,0.00000000,0.00000000,
3.330905,-0.3023,-0.9596,-0.0269,-0.1928,0.0412,0.7148,-0.2517,1.4641,0.0713,9.6129,34.8979,15.4953,342.8750,77.7969,-11.8125,0.00000000,0.00000000,0.00000000,
3.350076,-0.3023,-0.9596,-0.0269,-0.1928,0.0412,0.7148,-0.2517,1.4641,0.0713,9.5105,35.3092,15.9508,342.8750,77.7969,-11.8125,0.00000000,0.00000000,0.00000000,
3.359294,-0.3023,-0.9596,-0.0269,-0.1928,0.0412,0.7148,-0.2517,1.4641,0.0713,9.5105,35.3092,15.9508,342.5469,77.4375,-12.1562,0.00000000,0.00000000,0.00000000,
3.364716,-0.3023,-0.9596,-0.0269,-0.6387,-0.0269,0.1976,-0.2517,1.4641,0.0713,9.5105,35.3092,15.9508,342.5469,77.4375,-12.1562,0.00000000,0.00000000,0.00000000,
3.373160,-0.3023,-0.9596,-0.0269,-0.6387,-0.0269,0.1976,-0.0937,0.6302,0.1414,9.5105,35.3092,15.9508,342.5469,77.4375,-12.1562,0.00000000,0.00000000,0.00000000,
3.382506,-0.3083,-0.9551,-0.0110,-0.6387,-0.0269,0.1976,-0.0937,0.6302,0.1414,9.5105,35.3092,15.9508,342.5469,77.4375,-12.1562,0.00000000,0.00000000,0.00000000,
3.397589,-0.3083,-0.9551,-0.0110,-0.6387,-0.0269,0.1976,-0.0937,0.6302,0.1414,9.5105,35.3092,15.9508,342.2031,77.2188,-12.5156,0.00000000,0.00000000,0.00000000,
3.421941,-0.3083,-0.9551,-0.0110,-0.6351,-0.0700,0.4027,-0.0937,0.6302,0.1414,9.5105,35.3092,15.9508,342.2031,77.2188,-12.5156,0.00000000,0.00000000,0.00000000,
3.425508,-0.3083,-0.9551,-0.0110,-0.5246,-0.0925,0.3550,-0.0937,0.6302,0.1414,9.5105,35.3092,15.9508,342.2031,77.2188,-12.5156,0.00000000,0.00000000,0.00000000,
3.429908,-0.3083,-0.9551,-0.0110,-0.5246,-0.0925,0.3550,-0.0937,0.6302,0.1414,10.8543,35.3558,16.3838,342.2031,77.2188,-12.5156,0.00000000,0.00000000,0.00000000,
3.439252,-0.3083,-0.9551,-0.0110,-0.5246,-0.0925,0.3550,-0.0937,0.6302,0.1414,10.8543,35.3558,16.3838,341.8125,76.5000,-13.3281,0.00000000,0.00000000,0.00000000,
3.443831,-0.2457,-0.9723,0.0340,-0.5246,-0.0925,0.3550,-0.0937,0.6302,0.1414,10.8543,35.3558,16.3838,341.8125,76.5000,-13.3281,0.00000000,0.00000000,0.00000000,
3.449474,-0.2457,-0.9723,0.0340,-0.5246,-0.0925,0.3550,0.1328,-0.2976,0.2838,10.8543,35.3558,16.3838,341.8125,76.5000,-13.3281,0.00000000,0.00000000,0.00000000,
3.481099,-0.2457,-0.9723,0.0340,-0.0376,-0.2036,0.4938,0.1328,-0.2976,0.2838,10.8543,35.3558,16.3838,341.8125,76.5000,-13.3281,0.00000000,0.00000000,0.00000000,
3.486895,-0.2457,-0.9723,0.0340,-0.0376,-0.2036,0.4938,0.1328,-0.2976,0.2838,10.8543,35.3558,16.3838,343.3594,76.1094,-13.8281,0.00000000,0.00000000,0.00000000,
3.494815,-0.2457,-0.9723,0.0340,-0.0376,-0.2036,0.4938,0.1328,-0.2976,0.2838,12.3300,34.5728,15.3349,343.3594,76.1094,-13.8281,0.00000000,0.00000000,0.00000000,
3.515061,-0.0909,-1.0370,0.0708,-0.0376,-0.2036,0.4938,0.1328,-0.2976,0.2838,12.3300,34.5728,15.3349,343.3594,76.1094,-13.8281,0.00000000,0.00000000,0.00000000,
3.530546,-0.0909,-1.0370,0.0708,-0.0376,-0.2036,0.4938,0.1328,-0.2976,0.2838,12.3300,34.5728,15.3349,345.8906,76.1250,-13.8281,0.00000000,0.00000000,0.00000000,
3.536033,-0.0909,-1.0370,0.0708,-0.0376,-0.2036,0.4938,0.4038,-0.4547,0.2622,12.3300,34.5728,15.3349,345.8906,76.1250,-13.8281,0.00000000,0.00000000,0.00000000,
3.543188,-0.0909,-1.0370,0.0708,1.3819,-0.5975,0.8504,0.4038,-0.4547,0.2622,12.3300,34.5728,15.3349,345.8906,76.1250,-13.8281,0.00000000,0.00000000,0.00000000,
3.547161,-0.0909,-1.0370,0.0708,1.3847,-0.5946,0.6056,0.4038,-0.4547,0.2622,12.3300,34.5728,15.3349,345.8906,76.1250,-13.8281,0.00000000,0.00000000,0.00000000,
3.550039,-0.0909,-1.0370,0.0708,1.3847,-0.5946,0.6056,0.4038,-0.4547,0.2622,12.1663,34.6885,13.6432,345.8906,76.1250,-13.8281,0.00000000,0.00000000,0.00000000,
3.563525,-0.0909,-1.0370,0.0708,1.3847,-0.5946,0.6056,0.4038,-0.4547,0.2622,12.1663,34.6885,13.6432,347.9688,75.4062,-14.5781,0.00000000,0.00000000,0.00000000,
3.572037,-0.0909,-1.0370,0.0708,1.3847,-0.5946,0.6056,0.6687,0.0497,-0.0942,12.1663,34.6885,13.6432,347.9688,75.4062,-14.5781,0.00000000,0.00000000,0.00000000,
3.582912,-0.0481,-1.0443,0.0169,1.3847,-0.5946,0.6056,0.6687,0.0497,-0.0942,12.1663,34.6885,13.6432,347.9688,75.4062,-14.5781,0.00000000,0.00000000,0.00000000,
3.601437,-0.0481,-1.0443,0.0169,2.1509,-1.0879,0.0448,0.6687,0.0497,-0.0942,12.1663,34.6885,13.6432,347.9688,75.4062,-14.5781,0.00000000,0.00000000,0.00000000,
3.605444,-0.0481,-1.0443,0.0169,2.1509,-1.0879,0.0448,0.6687,0.0497,-0.0942,12.1663,34.6885,13.6432,350.9844,104.7656,-14.7344,0.00000000,0.00000000,0.00000000,
3.629877,-0.0481,-1.0443,0.0169,2.1509,-1.0879,0.0448,0.6687,0.0497,-0.0942,11.1408,35.1546,11.7898,350.9844,104.7656,-14.7344,0.00000000,0.00000000,0.00000000,
3.643274,-0.1238,-0.9932,-0.0294,2.1509,-1.0879,0.0448,0.6687,0.0497,-0.0942,11.1408,35.1546,11.7898,350.9844,104.7656,-14.7344,0.00000000,0.00000000,0.00000000,
3.647036,-0.1238,-0.9932,-0.0294,2.1509,-1.0879,0.0448,0.6687,0.0497,-0.0942,11.1408,35.1546,11.7898,353.2656,104.9375,-14.8281,0.00000000,0.00000000,0.00000000,
3.655504,-0.1238,-0.9932,-0.0294,2.1509,-1.0879,0.0448,0.6553,0.1934,-0.4405,11.1408,35.1546,11.7898,353.2656,104.9375,-14.8281,0.00000000,0.00000000,0.00000000,
3.663638,-0.1238,-0.9932,-0.0294,1.7334,-0.6523,-0.6658,0.6553,0.1934,-0.4405,11.1408,35.1546,11.7898,353.2656,104.9375,-14.8281,0.00000000,0.00000000,0.00000000,
3.666848,-0.1238,-0.9932,-0.0294,1.5172,-0.6095,-0.8593,0.6553,0.1934,-0.4405,11.1408,35.1546,11.7898,353.2656,104.9375,-14.8281,0.00000000,0.00000000,0.00000000,
3.689291,-0.1238,-0.9932,-0.0294,1.5172,-0.6095,-0.8593,0.6553,0.1934,-0.4405,11.1408,35.1546,11.7898,353.9062,105.3594,-15.1719,0.00000000,0.00000000,0.00000000,
3.694732,-0.1238,-0.9932,-0.0294,1.5172,-0.6095,-0.8593,0.6553,0.1934,-0.4405,9.2204,36.2626,10.6802,353.9062,105.3594,-15.1719,0.00000000,0.00000000,0.00000000,
3.713955,-0.1586,-0.9232,-0.0566,1.5172,-0.6095,-0.8593,0.6553,0.1934,-0.4405,9.2204,36.2626,10.6802,353.9062,105.3594,-15.1719,0.00000000,0.00000000,0.00000000,
3.723701,-0.1586,-0.9232,-0.0566,0.5726,-0.0087,-1.3104,0.6553,0.1934,-0.4405,9.2204,36.2626,10.6802,353.9062,105.3594,-15.1719,0.00000000,0.00000000,0.00000000,
3.731233,-0.1586,-0.9232,-0.0566,0.5726,-0.0087,-1.3104,0.6553,0.1934,-0.4405,9.2204,36.2626,10.6802,351.1719,106.7188,-16.7031,0.00000000,0.00000000,0.00000000,
3.734162,-0.1586,-0.9232,-0.0566,0.5726,-0.0087,-1.3104,0.4957,0.2671,-0.5509,9.2204,36.2626,10.6802,351.1719,106.7188,-16.7031,0.00000000,0.00000000,0.00000000,
3.749784,-0.1586,-0.9232,-0.0566,0.5726,-0.0087,-1.3104,0.4957,0.2671,-0.5509,7.4164,36.8319,9.4806,351.1719,106.7188,-16.7031,0.00000000,0.00000000,0.00000000,
3.773851,-0.1586,-0.9232,-0.0566,0.5726,-0.0087,-1.3104,0.4957,0.2671,-0.5509,7.4164,36.8319,9.4806,349.6094,72.5938,-17.4062,0.00000000,0.00000000,0.00000000,
3.780042,-0.1574,-0.9346,-0.0968,0.5726,-0.0087,-1.3104,0.4957,0.2671,-0.5509,7.4164,36.8319,9.4806,349.6094,72.5938,-17.4062,0.00000000,0.00000000,0.00000000,
3.786003,-0.1574,-0.9346,-0.0968,0.5726,-0.0087,-1.3104,0.2395,0.1380,-0.5109,7.4164,36.8319,9.4806,349.6094,72.5938,-17.4062,0.00000000,0.00000000,0.00000000,
3.792348,-0.1574,-0.9346,-0.0968,0.2786,0.4562,-1.7078,0.2395,0.1380,-0.5109,7.4164,36.8319,9.4806,349.6094,72.5938,-17.4062,0.00000000,0.00000000,0.00000000,
3.795462,-0.1574,-0.9346,-0.0968,0.0907,0.4753,-1.7403,0.2395,0.1380,-0.5109,7.4164,36.8319,9.4806,349.6094,72.5938,-17.4062,0.00000000,0.00000000,0.00000000,
3.813987,-0.1574,-0.9346,-0.0968,0.0907,0.4753,-1.7403,0.2395,0.1380,-0.5109,7.4164,36.8319,9.4806,349.5781,72.2969,-17.5625,0.00000000,0.00000000,0.00000000,
3.829706,-0.1574,-0.9346,-0.0968,0.0907,0.4753,-1.7403,0.2395,0.1380,-0.5109,6.0850,36.8210,8.6688,349.5781,72.2969,-17.5625,0.00000000,0.00000000,0.00000000,
3.844179,-0.1574,-0.9346,-0.0968,-0.0503,0.2685,-1.9816,0.2395,0.1380,-0.5109,6.0850,36.8210,8.6688,349.5781,72.2969,-17.5625,0.00000000,0.00000000,0.00000000,
3.849227,-0.1707,-0.9736,-0.0690,-0.0503,0.2685,-1.9816,0.2395,0.1380,-0.5109,6.0850,36.8210,8.6688,349.5781,72.2969,-17.5625,0.00000000,0.00000000,0.00000000,
3.852701,-0.1707,-0.9736,-0.0690,-0.0503,0.2685,-1.9816,0.0002,0.1746,-0.3087,6.0850,36.8210,8.6688,349.5781,72.2969,-17.5625,0.00000000,0.00000000,0.00000000,
3.855795,-0.1707,-0.9736,-0.0690,-0.0503,0.2685,-1.9816,0.0002,0.1746,-0.3087,6.0850,36.8210,8.6688,350.6406,72.3906,-17.2188,0.00000000,0.00000000,0.00000000,
3.892047,-0.1707,-0.9736,-0.0690,-0.0503,0.2685,-1.9816,0.0002,0.1746,-0.3087,4.1989,37.0872,9.2966,350.6406,72.3906,-17.2188,0.00000000,0.00000000,0.00000000,
3.901697,-0.1707,-0.9736,-0.0690,-0.0503,0.2685,-1.9816,-0.0843,0.2633,-0.2344,4.1989,37.0872,9.2966,350.6406,72.3906,-17.2188,0.00000000,0.00000000,0.00000000,
3.908249,-0.1707,-0.9736,-0.0690,-0.0503,0.2685,-1.9816,-0.0843,0.2633,-0.2344,4.1989,37.0872,9.2966,352.2969,72.8750,-16.3438,0.00000000,0.00000000,0.00000000,
3.912626,-0.1707,-0.9736,-0.0690,-0.2588,-0.0778,-1.5811,-0.0843,0.2633,-0.2344,4.1989,37.0872,9.2966,352.2969,72.8750,-16.3438,0.00000000,0.00000000,0.00000000,
3.915810,-0.1707,-0.9736,-0.0690,-0.3328,-0.0604,-1.5083,-0.0843,0.2633,-0.2344,4.1989,37.0872,9.2966,352.2969,72.8750,-16.3438,0.00000000,0.00000000,0.00000000,
3.918678,-0.2200,-0.9848,-0.0043,-0.3328,-0.0604,-1.5083,-0.0843,0.2633,-0.2344,4.1989,37.0872,9.2966,352.2969,72.8750,-16.3438,0.00000000,0.00000000,0.00000000,
3.938891,-0.2200,-0.9848,-0.0043,-0.3328,-0.0604,-1.5083,-0.0843,0.2633,-0.2344,4.1989,37.0872,9.2966,354.3438,73.5312,-15.2031,0.00000000,0.00000000,0.00000000,
3.949682,-0.2200,-0.9848,-0.0043,-0.3328,-0.0604,-1.5083,-0.0843,0.2633,-0.2344,3.3606,36.9194,8.3739,354.3438,73.5312,-15.2031,0.00000000,0.00000000,0.00000000,
3.964022,-0.2200,-0.9848,-0.0043,-0.8981,-0.1149,-0.8653,-0.0843,0.2633,-0.2344,3.3606,36.9194,8.3739,354.3438,73.5312,-15.2031,0.00000000,0.00000000,0.00000000,
3.982862,-0.2200,-0.9848,-0.0043,-0.8981,-0.1149,-0.8653,-0.0938,0.1598,-0.3393,3.3606,36.9194,8.3739,354.3438,73.5312,-15.2031,0.00000000,0.00000000,0.00000000,
3.986642,-0.2490,-0.8980,0.0569,-0.8981,-0.1149,-0.8653,-0.0938,0.1598,-0.3393,3.3606,36.9194,8.3739,354.3438,73.5312,-15.2031,0.00000000,0.00000000,0.00000000,
3.989047,-0.2490,-0.8980,0.0569,-0.8981,-0.1149,-0.8653,-0.0938,0.1598,-0.3393,3.3606,36.9194,8.3739,356.3594,74.1875,-14.0469,0.00000000,0.00000000,0.00000000,
4.023766,-0.2490,-0.8980,0.0569,-0.8981,-0.1149,-0.8653,-0.0938,0.1598,-0.3393,3.3606,36.9194,8.3739,358.1875,74.8750,-12.8438,0.00000000,0.00000000,0.00000000,
4.029235,-0.2490,-0.8980,0.0569,-1.2772,0.6472,-0.2386,-0.0938,0.1598,-0.3393,3.3606,36.9194,8.3739,358.1875,74.8750,-12.8438,0.00000000,0.00000000,0.00000000,
4.033461,-0.2490,-0.8980,0.0569,-1.3511,0.6497,-0.2062,-0.0938,0.1598,-0.3393,3.3606,36.9194,8.3739,358.1875,74.8750,-12.8438,0.00000000,0.00000000,0.00000000,
4.036824,-0.2490,-0.8980,0.0569,-1.3511,0.6497,-0.2062,-0.0938,0.1598,-0.3393,3.1390,37.5693,9.0569,358.1875,74.8750,-12.8438,0.00000000,0.00000000,0.00000000,
4.045141,-0.1846,-0.8231,0.0446,-1.3511,0.6497,-0.2062,-0.0938,0.1598,-0.3393,3.1390,37.5693,9.0569,358.1875,74.8750,-12.8438,0.00000000,0.00000000,0.00000000,
4.058255,-0.1846,-0.8231,0.0446,-1.3511,0.6497,-0.2062,-0.0870,-0.1089,-0.2112,3.1390,37.5693,9.0569,358.1875,74.8750,-12.8438,0.00000000,0.00000000,0.00000000,
4.064796,-0.1846,-0.8231,0.0446,-1.3511,0.6497,-0.2062,-0.0870,-0.1089,-0.2112,3.1390,37.5693,9.0569,359.6562,75.6094,-11.7344,0.00000000,0.00000000,0.00000000,
4.084111,-0.1846,-0.8231,0.0446,-0.9319,1.3740,-0.2569,-0.0870,-0.1089,-0.2112,3.1390,37.5693,9.0569,359.6562,75.6094,-11.7344,0.00000000,0.00000000,0.00000000,
4.089194,-0.1846,-0.8231,0.0446,-0.9319,1.3740,-0.2569,-0.0870,-0.1089,-0.2112,2.1761,37.5003,9.0219,359.6562,75.6094,-11.7344,0.00000000,0.00000000,0.00000000,
4.096743,-0.1846,-0.8231,0.0446,-0.9319,1.3740,-0.2569,-0.0221,0.0056,-0.0236,2.1761,37.5003,9.0219,359.6562,75.6094,-11.7344,0.00000000,0.00000000,0.00000000,
4.106369,-0.1846,-0.8231,0.0446,-0.9319,1.3740,-0.2569,-0.0221,0.0056,-0.0236,2.1761,37.5003,9.0219,0.7188,76.1875,-11.0312,0.00000000,0.00000000,0.00000000,
4.115751,-0.1463,-1.0931,0.1551,-0.9319,1.3740,-0.2569,-0.0221,0.0056,-0.0236,2.1761,37.5003,9.0219,0.7188,76.1875,-11.0312,0.00000000,0.00000000,0.00000000,
4.145185,-0.1463,-1.0931,0.1551,-0.0712,0.2601,0.6685,-0.0221,0.0056,-0.0236,2.1761,37.5003,9.0219,0.7188,76.1875,-11.0312,0.00000000,0.00000000,0.00000000,
4.150245,-0.1463,-1.0931,0.1551,0.1770,0.2181,0.5642,-0.0221,0.0056,-0.0236,2.1761,37.5003,9.0219,0.7188,76.1875,-11.0312,0.00000000,0.00000000,0.00000000,
4.154941,-0.1463,-1.0931,0.1551,0.1770,0.2181,0.5642,-0.0221,0.0056,-0.0236,2.1761,37.5003,9.0219,1.7344,76.7188,-10.5156,0.00000000,0.00000000,0.00000000,
4.158629,-0.1463,-1.0931,0.1551,0.1770,0.2181,0.5642,-0.0221,0.0056,-0.0236,2.8223,37.3469,8.9094,1.7344,76.7188,-10.5156,0.00000000,0.00000000,0.00000000,
4.182508,-0.2164,-1.0237,0.0973,0.1770,0.2181,0.5642,-0.0221,0.0056,-0.0236,2.8223,37.3469,8.9094,1.7344,76.7188,-10.5156,0.00000000,0.00000000,0.00000000,
4.188433,-0.2164,-1.0237,0.0973,0.1770,0.2181,0.5642,0.3449,0.0520,0.3168,2.8223,37.3469,8.9094,1.7344,76.7188,-10.5156,0.00000000,0.00000000,0.00000000,
4.192982,-0.2164,-1.0237,0.0973,0.1770,0.2181,0.5642,0.3449,0.0520,0.3168,2.8223,37.3469,8.9094,2.7656,77.2656,-10.0625,0.00000000,0.00000000,0.00000000,
4.205674,-0.2164,-1.0237,0.0973,-1.4869,-2.1518,0.1714,0.3449,0.0520,0.3168,2.8223,37.3469,8.9094,2.7656,77.2656,-10.0625,0.00000000,0.00000000,0.00000000,
4.232802,-0.2164,-1.0237,0.0973,-1.4869,-2.1518,0.1714,0.3449,0.0520,0.3168,2.8223,37.3469,8.9094,3.9062,77.9531,-9.4688,0.00000000,0.00000000,0.00000000,
4.238791,-0.2164,-1.0237,0.0973,-1.4869,-2.1518,0.1714,0.3449,0.0520,0.3168,2.8423,37.4044,7.4288,3.9062,77.9531,-9.4688,0.00000000,0.00000000,0.00000000,
4.245659,-0.1265,-1.0139,0.0764,-1.4869,-2.1518,0.1714,0.3449,0.0520,0.3168,2.8423,37.4044,7.4288,3.9062,77.9531,-9.4688,0.00000000,0.00000000,0.00000000,
4.259832,-0.1265,-1.0139,0.0764,-1.4869,-2.1518,0.1714,0.4324,-0.0740,-0.3250,2.8423,37.4044,7.4288,3.9062,77.9531,-9.4688,0.00000000,0.00000000,0.00000000,
4.264686,-0.1265,-1.0139,0.0764,0.0353,0.5374,-0.1411,0.4324,-0.0740,-0.3250,2.8423,37.4044,7.4288,3.9062,77.9531,-9.4688,0.00000000,0.00000000,0.00000000,
4.267110,-0.1265,-1.0139,0.0764,-0.1445,0.5270,-0.3179,0.4324,-0.0740,-0.3250,2.8423,37.4044,7.4288,3.9062,77.9531,-9.4688,0.00000000,0.00000000,0.00000000,
4.273524,-0.1265,-1.0139,0.0764,-0.1445,0.5270,-0.3179,0.4324,-0.0740,-0.3250,2.8423,37.4044,7.4288,4.9219,78.7188,-8.6875,0.00000000,0.00000000,0.00000000,
4.289228,-0.1265,-1.0139,0.0764,-0.1445,0.5270,-0.3179,0.4324,-0.0740,-0.3250,1.9840,38.2154,6.4204,4.9219,78.7188,-8.6875,0.00000000,0.00000000,0.00000000,
4.298152,-0.1265,-1.0139,0.0764,-0.1445,0.5270,-0.3179,0.3845,-0.1683,-0.2495,1.9840,38.2154,6.4204,4.9219,78.7188,-8.6875,0.00000000,0.00000000,0.00000000,
4.314210,-0.1265,-1.0139,0.0764,-0.1445,0.5270,-0.3179,0.3845,-0.1683,-0.2495,1.9840,38.2154,6.4204,5.2656,79.2656,-8.1094,0.00000000,0.00000000,0.00000000,
4.318732,-0.0888,-0.9375,0.1856,-0.1445,0.5270,-0.3179,0.3845,-0.1683,-0.2495,1.9840,38.2154,6.4204,5.2656,79.2656,-8.1094,0.00000000,0.00000000,0.00000000,
4.325537,-0.0888,-0.9375,0.1856,-0.1175,-0.4957,-0.5896,0.3845,-0.1683,-0.2495,1.9840,38.2154,6.4204,5.2656,79.2656,-8.1094,0.00000000,0.00000000,0.00000000,
4.349560,-0.0888,-0.9375,0.1856,-0.1175,-0.4957,-0.5896,0.3845,-0.1683,-0.2495,0.6833,37.1302,4.9982,5.2656,79.2656,-8.1094,0.00000000,0.00000000,0.00000000,
4.355895,-0.0888,-0.9375,0.1856,-0.1175,-0.4957,-0.5896,0.3845,-0.1683,-0.2495,0.6833,37.1302,4.9982,5.2656,79.6562,-7.7344,0.00000000,0.00000000,0.00000000,
4.379413,-0.0719,-0.9769,0.1532,-0.1175,-0.4957,-0.5896,0.3845,-0.1683,-0.2495,0.6833,37.1302,4.9982,5.2656,79.6562,-7.7344,0.00000000,0.00000000,0.00000000,
4.385477,-0.0719,-0.9769,0.1532,-0.1175,-0.4957,-0.5896,0.1869,0.1048,-0.2043,0.6833,37.1302,4.9982,5.2656,79.6562,-7.7344,0.00000000,0.00000000,0.00000000,
4.388639,-0.0719,-0.9769,0.1532,0.2360,0.0978,0.2216,0.1869,0.1048,-0.2043,0.6833,37.1302,4.9982,5.2656,79.6562,-7.7344,0.00000000,0.00000000,0.00000000,
4.391534,-0.0719,-0.9769,0.1532,0.1751,0.0924,0.1644,0.1869,0.1048,-0.2043,0.6833,37.1302,4.9982,5.2656,79.6562,-7.7344,0.00000000,0.00000000,0.00000000,
4.397337,-0.0719,-0.9769,0.1532,0.1751,0.0924,0.1644,0.1869,0.1048,-0.2043,0.6833,37.1302,4.9982,5.3281,79.7188,-7.7031,0.00000000,0.00000000,0.00000000,
4.431796,-0.0719,-0.9769,0.1532,0.1751,0.0924,0.1644,0.1869,0.1048,-0.2043,0.6581,37.8927,5.8312,5.3281,79.7188,-7.7031,0.00000000,0.00000000,0.00000000,
4.438612,-0.0719,-0.9769,0.1532,0.1751,0.0924,0.1644,0.1869,0.1048,-0.2043,0.6581,37.8927,5.8312,4.5781,78.1719,-9.2344,0.00000000,0.00000000,0.00000000,
4.447077,-0.0719,-0.9769,0.1532,0.0859,-0.1271,-0.1237,0.1869,0.1048,-0.2043,0.6581,37.8927,5.8312,4.5781,78.1719,-9.2344,0.00000000,0.00000000,0.00000000,
4.451188,-0.0747,-0.9749,0.1541,0.0859,-0.1271,-0.1237,0.1869,0.1048,-0.2043,0.6581,37.8927,5.8312,4.5781,78.1719,-9.2344,0.00000000,0.00000000,0.00000000,
4.459222,-0.0747,-0.9749,0.1541,0.0859,-0.1271,-0.1237,0.0569,0.0467,0.0922,0.6581,37.8927,5.8312,4.5781,78.1719,-9.2344,0.00000000,0.00000000,0.00000000,
4.481291,-0.0747,-0.9749,0.1541,0.0859,-0.1271,-0.1237,0.0569,0.0467,0.0922,0.6581,37.8927,5.8312,4.2188,77.4062,-9.4531,0.00000000,0.00000000,0.00000000,
4.489018,-0.0747,-0.9749,0.1541,0.0859,-0.1271,-0.1237,0.0569,0.0467,0.0922,1.7495,38.1124,4.9219,4.2188,77.4062,-9.4531,0.00000000,0.00000000,0.00000000,
4.499537,-0.0747,-0.9749,0.1541,0.0859,-0.1271,-0.1237,-0.1998,0.0375,0.3601,1.7495,38.1124,4.9219,4.2188,77.4062,-9.4531,0.00000000,0.00000000,0.00000000,
4.506346,-0.0747,-0.9749,0.1541,0.1835,-0.0625,-0.0772,-0.1998,0.0375,0.3601,1.7495,38.1124,4.9219,4.2188,77.4062,-9.4531,0.00000000,0.00000000,0.00000000,
4.509371,-0.1034,-0.9880,0.1505,0.1835,-0.0625,-0.0772,-0.1998,0.0375,0.3601,1.7495,38.1124,4.9219,4.2188,77.4062,-9.4531,0.00000000,0.00000000,0.00000000,
4.511459,-0.1034,-0.9880,0.1505,0.3240,-0.0623,0.0085,-0.1998,0.0375,0.3601,1.7495,38.1124,4.9219,4.2188,77.4062,-9.4531,0.00000000,0.00000000,0.00000000,
4.521873,-0.1034,-0.9880,0.1505,0.3240,-0.0623,0.0085,-0.1998,0.0375,0.3601,1.7495,38.1124,4.9219,4.8281,77.1875,-8.8438,0.00000000,0.00000000,0.00000000,
4.549470,-0.1034,-0.9880,0.1505,0.3240,-0.0623,0.0085,-0.1998,0.0375,0.3601,2.8967,38.0353,6.4565,4.8281,77.1875,-8.8438,0.00000000,0.00000000,0.00000000,
4.565026,-0.1034,-0.9880,0.1505,0.3240,-0.0623,0.0085,-0.1998,0.0375,0.3601,2.8967,38.0353,6.4565,5.8125,77.0625,-7.7500,0.00000000,0.00000000,0.00000000,
4.568818,-0.1034,-0.9880,0.1505,0.2349,-0.2544,0.1191,-0.1998,0.0375,0.3601,2.8967,38.0353,6.4565,5.8125,77.0625,-7.7500,0.00000000,0.00000000,0.00000000,
4.580207,-0.1034,-0.9880,0.1505,0.2349,-0.2544,0.1191,-0.6486,0.3607,0.6155,2.8967,38.0353,6.4565,5.8125,77.0625,-7.7500,0.00000000,0.00000000,0.00000000,
4.586897,-0.0756,-1.0045,0.0209,0.2349,-0.2544,0.1191,-0.6486,0.3607,0.6155,2.8967,38.0353,6.4565,5.8125,77.0625,-7.7500,0.00000000,0.00000000,0.00000000,
4.609582,-0.0756,-1.0045,0.0209,0.2349,-0.2544,0.1191,-0.6486,0.3607,0.6155,2.8967,38.0353,6.4565,6.1406,76.6406,-7.1250,0.00000000,0.00000000,0.00000000,
4.626790,-0.0756,-1.0045,0.0209,0.6376,-0.3572,-0.6627,-0.6486,0.3607,0.6155,2.8967,38.0353,6.4565,6.1406,76.6406,-7.1250,0.00000000,0.00000000,0.00000000,
4.631537,-0.0756,-1.0045,0.0209,0.6795,-0.3286,-0.2929,-0.6486,0.3607,0.6155,2.8967,38.0353,6.4565,6.1406,76.6406,-7.1250,0.00000000,0.00000000,0.00000000,
4.633517,-0.0756,-1.0045,0.0209,0.6795,-0.3286,-0.2929,-0.6486,0.3607,0.6155,3.9067,38.0014,8.3795,6.1406,76.6406,-7.1250,0.00000000,0.00000000,0.00000000,
4.647028,-0.0756,-1.0045,0.0209,0.6795,-0.3286,-0.2929,-0.6486,0.3607,0.6155,3.9067,38.0014,8.3795,6.9531,76.4688,-6.6094,0.00000000,0.00000000,0.00000000,
4.650778,0.0478,-1.1312,-0.1214,0.6795,-0.3286,-0.2929,-0.6486,0.3607,0.6155,3.9067,38.0014,8.3795,6.9531,76.4688,-6.6094,0.00000000,0.00000000,0.00000000,
4.660896,0.0478,-1.1312,-0.1214,0.6795,-0.3286,-0.2929,-0.7215,1.6972,0.0452,3.9067,38.0014,8.3795,6.9531,76.4688,-6.6094,0.00000000,0.00000000,0.00000000,
4.688687,0.0478,-1.1312,-0.1214,2.7172,-1.4218,-1.5788,-0.7215,1.6972,0.0452,3.9067,38.0014,8.3795,6.9531,76.4688,-6.6094,0.00000000,0.00000000,0.00000000,
4.693670,0.0478,-1.1312,-0.1214,2.7172,-1.4218,-1.5788,-0.7215,1.6972,0.0452,3.9067,38.0014,8.3795,7.5625,76.3438,-6.2812,0.00000000,0.00000000,0.00000000,
4.696335,0.0478,-1.1312,-0.1214,2.7172,-1.4218,-1.5788,-0.7215,1.6972,0.0452,4.1286,37.5010,9.6846,7.5625,76.3438,-6.2812,0.00000000,0.00000000,0.00000000,
4.704838,0.0478,-1.1312,-0.1214,2.7172,-1.4218,-1.5788,-0.6711,2.9350,0.1796,4.1286,37.5010,9.6846,7.5625,76.3438,-6.2812,0.00000000,0.00000000,0.00000000,
4.708871,-0.3406,-0.9518,0.0356,2.7172,-1.4218,-1.5788,-0.6711,2.9350,0.1796,4.1286,37.5010,9.6846,7.5625,76.3438,-6.2812,0.00000000,0.00000000,0.00000000,
4.731939,-0.3406,-0.9518,0.0356,2.7172,-1.4218,-1.5788,-0.6711,2.9350,0.1796,4.1286,37.5010,9.6846,7.5469,76.1250,-6.4219,0.00000000,0.00000000,0.00000000,
4.747348,-0.3406,-0.9518,0.0356,-1.3678,-0.3864,0.4335,-0.6711,2.9350,0.1796,4.1286,37.5010,9.6846,7.5469,76.1250,-6.4219,0.00000000,0.00000000,0.00000000,
4.751604,-0.3406,-0.9518,0.0356,-1.4211,-0.3838,0.7767,-0.6711,2.9350,0.1796,4.1286,37.5010,9.6846,7.5469,76.1250,-6.4219,0.00000000,0.00000000,0.00000000,
4.754363,-0.3406,-0.9518,0.0356,-1.4211,-0.3838,0.7767,-0.6711,2.9350,0.1796,2.2467,37.8803,12.0962,7.5469,76.1250,-6.4219,0.00000000,0.00000000,0.00000000,
4.772914,-0.3406,-0.9518,0.0356,-1.4211,-0.3838,0.7767,-0.6711,2.9350,0.1796,2.2467,37.8803,12.0962,7.1406,75.8906,-6.9062,0.00000000,0.00000000,0.00000000,
4.782438,-0.3406,-0.9518,0.0356,-1.4211,-0.3838,0.7767,-0.1392,3.6433,0.1017,2.2467,37.8803,12.0962,7.1406,75.8906,-6.9062,0.00000000,0.00000000,0.00000000,
4.785682,-0.4821,-0.7251,-0.0187,-1.4211,-0.3838,0.7767,-0.1392,3.6433,0.1017,2.2467,37.8803,12.0962,7.1406,75.8906,-6.9062,0.00000000,0.00000000,0.00000000,
4.809615,-0.4821,-0.7251,-0.0187,-2.7886,1.6861,1.1672,-0.1392,3.6433,0.1017,2.2467,37.8803,12.0962,7.1406,75.8906,-6.9062,0.00000000,0.00000000,0.00000000,
4.814747,-0.4821,-0.7251,-0.0187,-2.7886,1.6861,1.1672,-0.1392,3.6433,0.1017,2.2467,37.8803,12.0962,6.2812,75.8750,-7.7812,0.00000000,0.00000000,0.00000000,
4.830099,-0.4821,-0.7251,-0.0187,-2.7886,1.6861,1.1672,-0.1392,3.6433,0.1017,0.4517,37.0910,11.8114,6.2812,75.8750,-7.7812,0.00000000,0.00000000,0.00000000,
4.842235,-0.2739,-0.7886,-0.0261,-2.7886,1.6861,1.1672,-0.1392,3.6433,0.1017,0.4517,37.0910,11.8114,6.2812,75.8750,-7.7812,0.00000000,0.00000000,0.00000000,
4.854890,-0.2739,-0.7886,-0.0261,-2.7886,1.6861,1.1672,-0.1392,3.6433,0.1017,0.4517,37.0910,11.8114,5.1719,76.0469,-9.1719,0.00000000,0.00000000,0.00000000,
4.860571,-0.2739,-0.7886,-0.0261,-2.7886,1.6861,1.1672,0.1251,4.1702,0.6878,0.4517,37.0910,11.8114,5.1719,76.0469,-9.1719,0.00000000,0.00000000,0.00000000,
4.870113,-0.2739,-0.7886,-0.0261,-2.2169,2.5965,0.3590,0.1251,4.1702,0.6878,0.4517,37.0910,11.8114,5.1719,76.0469,-9.1719,0.00000000,0.00000000,0.00000000,
4.873435,-0.2739,-0.7886,-0.0261,-2.0680,2.5027,0.5726,0.1251,4.1702,0.6878,0.4517,37.0910,11.8114,5.1719,76.0469,-9.1719,0.00000000,0.00000000,0.00000000,
4.889034,-0.2739,-0.7886,-0.0261,-2.0680,2.5027,0.5726,0.1251,4.1702,0.6878,0.1687,37.2289,11.8414,5.1719,76.0469,-9.1719,0.00000000,0.00000000,0.00000000,
4.897427,-0.2739,-0.7886,-0.0261,-2.0680,2.5027,0.5726,0.1251,4.1702,0.6878,0.1687,37.2289,11.8414,4.3750,76.1250,-10.8281,0.00000000,0.00000000,0.00000000,
4.900267,-0.2739,-0.7886,-0.0261,-2.0680,2.5027,0.5726,0.4080,3.6125,0.6043,0.1687,37.2289,11.8414,4.3750,76.1250,-10.8281,0.00000000,0.00000000,0.00000000,
4.908366,0.0971,-1.1592,0.0058,-2.0680,2.5027,0.5726,0.4080,3.6125,0.6043,0.1687,37.2289,11.8414,4.3750,76.1250,-10.8281,0.00000000,0.00000000,0.00000000,
4.929087,0.0971,-1.1592,0.0058,1.5389,0.0512,2.0837,0.4080,3.6125,0.6043,0.1687,37.2289,11.8414,4.3750,76.1250,-10.8281,0.00000000,0.00000000,0.00000000,
4.938756,0.0971,-1.1592,0.0058,1.5389,0.0512,2.0837,0.4080,3.6125,0.6043,0.1687,37.2289,11.8414,6.7969,77.0156,-11.3125,0.00000000,0.00000000,0.00000000,
4.947766,0.0971,-1.1592,0.0058,1.5389,0.0512,2.0837,0.4080,3.6125,0.6043,-0.0653,37.2058,9.7451,6.7969,77.0156,-11.3125,0.00000000,0.00000000,0.00000000,
4.980085,0.0971,-1.1592,0.0058,1.5389,0.0512,2.0837,0.3696,1.4381,-0.1119,-0.0653,37.2058,9.7451,6.7969,77.0156,-11.3125,0.00000000,0.00000000,0.00000000,
4.985233,-0.1411,-0.9980,-0.3918,1.5389,0.0512,2.0837,0.3696,1.4381,-0.1119,-0.0653,37.2058,9.7451,6.7969,77.0156,-11.3125,0.00000000,0.00000000,0.00000000,
4.987874,-0.1411,-0.9980,-0.3918,1.5389,0.0512,2.0837,0.3696,1.4381,-0.1119,-0.0653,37.2058,9.7451,17.1250,77.2031,-12.7812,0.00000000,0.00000000,0.00000000,
4.991230,-0.1411,-0.9980,-0.3918,1.6845,-1.4927,-1.4564,0.3696,1.4381,-0.1119,-0.0653,37.2058,9.7451,17.1250,77.2031,-12.7812,0.00000000,0.00000000,0.00000000,
4.993727,-0.1411,-0.9980,-0.3918,1.5454,-1.4418,-1.4705,0.3696,1.4381,-0.1119,-0.0653,37.2058,9.7451,17.1250,77.2031,-12.7812,0.00000000,0.00000000,0.00000000,
5.025345,-0.1411,-0.9980,-0.3918,1.5454,-1.4418,-1.4705,0.3696,1.4381,-0.1119,-0.0653,37.2058,9.7451,24.2500,102.7969,-12.6719,0.00000000,0.00000000,0.00000000,
5.033326,-0.1411,-0.9980,-0.3918,1.5454,-1.4418,-1.4705,0.3696,1.4381,-0.1119,-0.8321,38.0081,8.0829,24.2500,102.7969,-12.6719,0.00000000,0.00000000,0.00000000,
5.042997,-0.1777,-0.9809,-0.1280,1.5454,-1.4418,-1.4705,0.3696,1.4381,-0.1119,-0.8321,38.0081,8.0829,24.2500,102.7969,-12.6719,0.00000000,0.00000000,0.00000000,
5.058454,-0.1777,-0.9809,-0.1280,0.0320,-0.8561,-1.0837,0.3696,1.4381,-0.1119,-0.8321,38.0081,8.0829,24.2500,102.7969,-12.6719,0.00000000,0.00000000,0.00000000,
5.065171,-0.1777,-0.9809,-0.1280,0.0320,-0.8561,-1.0837,0.3253,-0.3953,-0.2787,-0.8321,38.0081,8.0829,24.2500,102.7969,-12.6719,0.00000000,0.00000000,0.00000000,
5.069666,-0.1777,-0.9809,-0.1280,0.0320,-0.8561,-1.0837,0.3253,-0.3953,-0.2787,-0.8321,38.0081,8.0829,33.1875,103.2500,-12.6719,0.00000000,0.00000000,0.00000000,
5.090179,-0.1777,-0.9809,-0.1280,0.0320,-0.8561,-1.0837,0.3253,-0.3953,-0.2787,-1.6085,36.7686,7.1228,33.1875,103.2500,-12.6719,0.00000000,0.00000000,0.00000000,
5.100386,-0.1777,-0.9809,-0.1280,0.0320,-0.8561,-1.0837,0.1709,-0.0469,-0.3807,-1.6085,36.7686,7.1228,33.1875,103.2500,-12.6719,0.00000000,0.00000000,0.00000000,
5.106871,-0.1777,-0.9809,-0.1280,0.0320,-0.8561,-1.0837,0.1709,-0.0469,-0.3807,-1.6085,36.7686,7.1228,42.1250,104.4844,-13.2656,0.00000000,0.00000000,0.00000000,
5.110129,-0.1777,-0.9809,-0.1280,0.0190,-0.3251,-0.0315,0.1709,-0.0469,-0.3807,-1.6085,36.7686,7.1228,42.1250,104.4844,-13.2656,0.00000000,0.00000000,0.00000000,
5.112209,-0.1101,-0.9787,-0.1399,0.0190,-0.3251,-0.0315,0.1709,-0.0469,-0.3807,-1.6085,36.7686,7.1228,42.1250,104.4844,-13.2656,0.00000000,0.00000000,0.00000000,
5.114177,-0.1101,-0.9787,-0.1399,-0.1236,-0.2920,-0.0953,0.1709,-0.0469,-0.3807,-1.6085,36.7686,7.1228,42.1250,104.4844,-13.2656,0.00000000,0.00000000,0.00000000,
5.148122,-0.1101,-0.9787,-0.1399,-0.1236,-0.2920,-0.0953,0.1709,-0.0469,-0.3807,-1.6085,36.7686,7.1228,50.1875,105.9531,-14.0000,0.00000000,0.00000000,0.00000000,
5.155548,-0.1101,-0.9787,-0.1399,-0.1236,-0.2920,-0.0953,0.1709,-0.0469,-0.3807,-2.4138,37.0065,7.2607,50.1875,105.9531,-14.0000,0.00000000,0.00000000,0.00000000,
5.173907,-0.1101,-0.9787,-0.1399,0.0934,-0.0626,-0.2275,0.1709,-0.0469,-0.3807,-2.4138,37.0065,7.2607,50.1875,105.9531,-14.0000,0.00000000,0.00000000,0.00000000,
5.183545,-0.1101,-0.9787,-0.1399,0.0934,-0.0626,-0.2275,0.1112,0.0494,-0.3157,-2.4138,37.0065,7.2607,50.1875,105.9531,-14.0000,0.00000000,0.00000000,0.00000000,
5.186272,-0.0960,-1.0002,-0.1454,0.0934,-0.0626,-0.2275,0.1112,0.0494,-0.3157,-2.4138,37.0065,7.2607,50.1875,105.9531,-14.0000,0.00000000,0.00000000,0.00000000,
5.188843,-0.0960,-1.0002,-0.1454,0.0934,-0.0626,-0.2275,0.1112,0.0494,-0.3157,-2.4138,37.0065,7.2607,58.3594,106.6406,-14.1406,0.00000000,0.00000000,0.00000000,
5.233247,-0.0960,-1.0002,-0.1454,0.0774,-0.2962,-0.4299,0.1112,0.0494,-0.3157,-2.4138,37.0065,7.2607,58.3594,106.6406,-14.1406,0.00000000,0.00000000,0.00000000,
5.240140,-0.0960,-1.0002,-0.1454,0.0774,-0.2962,-0.4299,0.1112,0.0494,-0.3157,-3.0453,37.3303,6.9606,58.3594,106.6406,-14.1406,0.00000000,0.00000000,0.00000000,
5.245103,-0.0960,-1.0002,-0.1454,0.0774,-0.2962,-0.4299,0.1112,0.0494,-0.3157,-3.0453,37.3303,6.9606,65.7969,106.0312,-13.3125,0.00000000,0.00000000,0.00000000,
5.249832,-0.0960,-1.0002,-0.1454,-0.0650,-0.2684,-0.5103,0.1112,0.0494,-0.3157,-3.0453,37.3303,6.9606,65.7969,106.0312,-13.3125,0.00000000,0.00000000,0.00000000,
5.253869,-0.0787,-0.9670,-0.1107,-0.0650,-0.2684,-0.5103,0.1112,0.0494,-0.3157,-3.0453,37.3303,6.9606,65.7969,106.0312,-13.3125,0.00000000,0.00000000,0.00000000,
5.264221,-0.0787,-0.9670,-0.1107,-0.0650,-0.2684,-0.5103,0.2526,0.1012,-0.3639,-3.0453,37.3303,6.9606,65.7969,106.0312,-13.3125,0.00000000,0.00000000,0.00000000,
5.272364,-0.0787,-0.9670,-0.1107,-0.0650,-0.2684,-0.5103,0.2526,0.1012,-0.3639,-3.0453,37.3303,6.9606,67.5938,105.3438,-12.6094,0.00000000,0.00000000,0.00000000,
5.289437,-0.0787,-0.9670,-0.1107,-0.0650,-0.2684,-0.5103,0.2526,0.1012,-0.3639,-4.5532,37.2812,5.6611,67.5938,105.3438,-12.6094,0.00000000,0.00000000,0.00000000,
5.293894,-0.0787,-0.9670,-0.1107,-0.0674,0.1703,-0.2688,0.2526,0.1012,-0.3639,-4.5532,37.2812,5.6611,67.5938,105.3438,-12.6094,0.00000000,0.00000000,0.00000000,
5.303888,-0.0787,-0.9670,-0.1107,-0.0674,0.1703,-0.2688,0.2050,0.0727,-0.1595,-4.5532,37.2812,5.6611,67.5938,105.3438,-12.6094,0.00000000,0.00000000,0.00000000,
5.311242,-0.0533,-0.9866,-0.0948,-0.0674,0.1703,-0.2688,0.2050,0.0727,-0.1595,-4.5532,37.2812,5.6611,67.5938,105.3438,-12.6094,0.00000000,0.00000000,0.00000000,
5.314148,-0.0533,-0.9866,-0.0948,-0.0674,0.1703,-0.2688,0.2050,0.0727,-0.1595,-4.5532,37.2812,5.6611,67.2656,104.4375,-12.2031,0.00000000,0.00000000,0.00000000,
5.349973,-0.0533,-0.9866,-0.0948,-0.0674,0.1703,-0.2688,0.2050,0.0727,-0.1595,-4.7847,37.0071,5.0628,67.2656,104.4375,-12.2031,0.00000000,0.00000000,0.00000000,
5.357612,-0.0533,-0.9866,-0.0948,0.1774,-0.0539,-0.1410,0.2050,0.0727,-0.1595,-4.7847,37.0071,5.0628,67.2656,104.4375,-12.2031,0.00000000,0.00000000,0.00000000,
5.362323,-0.0533,-0.9866,-0.0948,0.1718,-0.0478,-0.2041,0.2050,0.0727,-0.1595,-4.7847,37.0071,5.0628,67.2656,104.4375,-12.2031,0.00000000,0.00000000,0.00000000,
5.366453,-0.0533,-0.9866,-0.0948,0.1718,-0.0478,-0.2041,0.2050,0.0727,-0.1595,-4.7847,37.0071,5.0628,67.8438,103.3906,-11.3125,0.00000000,0.00000000,0.00000000,
5.375143,-0.0594,-0.9875,-0.0961,0.1718,-0.0478,-0.2041,0.2050,0.0727,-0.1595,-4.7847,37.0071,5.0628,67.8438,103.3906,-11.3125,0.00000000,0.00000000,0.00000000,
5.383381,-0.0594,-0.9875,-0.0961,0.1718,-0.0478,-0.2041,0.2182,0.1000,0.0017,-4.7847,37.0071,5.0628,67.8438,103.3906,-11.3125,0.00000000,0.00000000,0.00000000,
5.396848,-0.0594,-0.9875,-0.0961,0.1718,-0.0478,-0.2041,0.2182,0.1000,0.0017,-4.7847,37.0071,5.0628,68.7656,102.4375,-10.4375,0.00000000,0.00000000,0.00000000,
5.413679,-0.0594,-0.9875,-0.0961,0.1262,-0.0743,-0.3739,0.2182,0.1000,0.0017,-4.7847,37.0071,5.0628,68.7656,102.4375,-10.4375,0.00000000,0.00000000,0.00000000,
5.430287,-0.0594,-0.9875,-0.0961,0.1262,-0.0743,-0.3739,0.2182,0.1000,0.0017,-4.2636,37.8869,4.6198,68.7656,102.4375,-10.4375,0.00000000,0.00000000,0.00000000,
5.439233,-0.0594,-0.9875,-0.0961,0.1262,-0.0743,-0.3739,0.2182,0.1000,0.0017,-4.2636,37.8869,4.6198,69.5000,101.7656,-9.7500,0.00000000,0.00000000,0.00000000,
5.443163,-0.0537,-0.9841,-0.0681,0.1262,-0.0743,-0.3739,0.2182,0.1000,0.0017,-4.2636,37.8869,4.6198,69.5000,101.7656,-9.7500,0.00000000,0.00000000,0.00000000,
5.463501,-0.0537,-0.9841,-0.0681,0.1262,-0.0743,-0.3739,0.3044,0.1217,-0.0605,-4.2636,37.8869,4.6198,69.5000,101.7656,-9.7500,0.00000000,0.00000000,0.00000000,
5.474727,-0.0537,-0.9841,-0.0681,0.1095,-0.0311,-0.2498,0.3044,0.1217,-0.0605,-4.2636,37.8869,4.6198,69.5000,101.7656,-9.7500,0.00000000,0.00000000,0.00000000,
5.478053,-0.0537,-0.9841,-0.0681,0.0658,-0.0231,-0.3447,0.3044,0.1217,-0.0605,-4.2636,37.8869,4.6198,69.5000,101.7656,-9.7500,0.00000000,0.00000000,0.00000000,
5.479815,-0.0537,-0.9841,-0.0681,0.0658,-0.0231,-0.3447,0.3044,0.1217,-0.0605,-4.2636,37.8869,4.6198,70.5938,100.9219,-8.9531,0.00000000,0.00000000,0.00000000,
5.489136,-0.0537,-0.9841,-0.0681,0.0658,-0.0231,-0.3447,0.3044,0.1217,-0.0605,-4.7015,37.4114,4.1427,70.5938,100.9219,-8.9531,0.00000000,0.00000000,0.00000000,
5.503779,-0.0537,-0.9841,-0.0681,0.0658,-0.0231,-0.3447,0.2145,0.1254,-0.1391,-4.7015,37.4114,4.1427,70.5938,100.9219,-8.9531,0.00000000,0.00000000,0.00000000,
5.515774,-0.0495,-0.9849,-0.0576,0.0658,-0.0231,-0.3447,0.2145,0.1254,-0.1391,-4.7015,37.4114,4.1427,70.5938,100.9219,-8.9531,0.00000000,0.00000000,0.00000000,
5.522200,-0.0495,-0.9849,-0.0576,0.0658,-0.0231,-0.3447,0.2145,0.1254,-0.1391,-4.7015,37.4114,4.1427,71.7812,99.9219,-8.1094,0.00000000,0.00000000,0.00000000,
5.537223,-0.0495,-0.9849,-0.0576,0.0665,-0.0368,-0.2760,0.2145,0.1254,-0.1391,-4.7015,37.4114,4.1427,71.7812,99.9219,-8.1094,0.00000000,0.00000000,0.00000000,
5.550143,-0.0495,-0.9849,-0.0576,0.0665,-0.0368,-0.2760,0.2145,0.1254,-0.1391,-6.4989,37.4116,2.7409,71.7812,99.9219,-8.1094,0.00000000,0.00000000,0.00000000,
5.564103,-0.0495,-0.9849,-0.0576,0.0665,-0.0368,-0.2760,0.2145,0.1254,-0.1391,-6.4989,37.4116,2.7409,72.8125,98.9375,-7.3438,0.00000000,0.00000000,0.00000000,
5.576168,-0.0284,-1.0228,-0.0969,0.0665,-0.0368,-0.2760,0.2145,0.1254,-0.1391,-6.4989,37.4116,2.7409,72.8125,98.9375,-7.3438,0.00000000,0.00000000,0.00000000,
5.583311,-0.0284,-1.0228,-0.0969,0.0665,-0.0368,-0.2760,0.2002,0.3108,-0.5971,-6.4989,37.4116,2.7409,72.8125,98.9375,-7.3438,0.00000000,0.00000000,0.00000000,
5.596618,-0.0284,-1.0228,-0.0969,-0.1104,-0.0172,-0.2701,0.2002,0.3108,-0.5971,-6.4989,37.4116,2.7409,72.8125,98.9375,-7.3438,0.00000000,0.00000000,0.00000000,
5.601310,-0.0284,-1.0228,-0.0969,-0.4144,-0.0043,-0.3409,0.2002,0.3108,-0.5971,-6.4989,37.4116,2.7409,72.8125,98.9375,-7.3438,0.00000000,0.00000000,0.00000000,
5.608227,-0.0284,-1.0228,-0.0969,-0.4144,-0.0043,-0.3409,0.2002,0.3108,-0.5971,-6.4989,37.4116,2.7409,73.3125,98.4688,-7.0625,0.00000000,0.00000000,0.00000000,
5.630524,-0.0284,-1.0228,-0.0969,-0.4144,-0.0043,-0.3409,0.2002,0.3108,-0.5971,-7.9783,36.8749,1.7012,73.3125,98.4688,-7.0625,0.00000000,0.00000000,0.00000000,
5.643808,0.0223,-1.3616,-0.1876,-0.4144,-0.0043,-0.3409,0.2002,0.3108,-0.5971,-7.9783,36.8749,1.7012,73.3125,98.4688,-7.0625,0.00000000,0.00000000,0.00000000,
5.648692,0.0223,-1.3616,-0.1876,-0.4144,-0.0043,-0.3409,0.2002,0.3108,-0.5971,-7.9783,36.8749,1.7012,73.6094,98.2500,-7.0469,0.00000000,0.00000000,0.00000000,
5.656619,0.0223,-1.3616,-0.1876,-0.3580,-0.9660,-1.0644,0.2002,0.3108,-0.5971,-7.9783,36.8749,1.7012,73.6094,98.2500,-7.0469,0.00000000,0.00000000,0.00000000,
5.663767,0.0223,-1.3616,-0.1876,-0.3580,-0.9660,-1.0644,0.7452,0.6804,-1.0856,-7.9783,36.8749,1.7012,73.6094,98.2500,-7.0469,0.00000000,0.00000000,0.00000000,
5.688613,0.0223,-1.3616,-0.1876,-0.3580,-0.9660,-1.0644,0.7452,0.6804,-1.0856,-7.9783,36.8749,1.7012,73.9219,97.9531,-7.0469,0.00000000,0.00000000,0.00000000,
5.692917,0.0223,-1.3616,-0.1876,-0.3580,-0.9660,-1.0644,0.7452,0.6804,-1.0856,-11.9112,34.9415,-1.4567,73.9219,97.9531,-7.0469,0.00000000,0.00000000,0.00000000,
5.705062,0.0223,-1.3616,-0.1876,-0.3580,-0.9660,-1.0644,1.4591,1.1156,-2.9817,-11.9112,34.9415,-1.4567,73.9219,97.9531,-7.0469,0.00000000,0.00000000,0.00000000,
5.717322,0.0223,-1.3616,-0.1876,-1.1307,-6.0631,-2.5899,1.4591,1.1156,-2.9817,-11.9112,34.9415,-1.4567,73.9219,97.9531,-7.0469,0.00000000,0.00000000,0.00000000,
5.721453,-0.2606,-2.0789,-0.3036,-1.1307,-6.0631,-2.5899,1.4591,1.1156,-2.9817,-11.9112,34.9415,-1.4567,73.9219,97.9531,-7.0469,0.00000000,0.00000000,0.00000000,
5.724875,-0.2606,-2.0789,-0.3036,-2.3873,-6.2229,-3.2058,1.4591,1.1156,-2.9817,-11.9112,34.9415,-1.4567,73.9219,97.9531,-7.0469,0.00000000,0.00000000,0.00000000,
5.733126,-0.2606,-2.0789,-0.3036,-2.3873,-6.2229,-3.2058,1.4591,1.1156,-2.9817,-11.9112,34.9415,-1.4567,74.4531,97.5312,-6.8906,0.00000000,0.00000000,0.00000000,
5.750509,-0.2606,-2.0789,-0.3036,-2.3873,-6.2229,-3.2058,1.4591,1.1156,-2.9817,-21.3140,27.9863,-6.2938,74.4531,97.5312,-6.8906,0.00000000,0.00000000,0.00000000,
5.773157,-0.2606,-2.0789,-0.3036,-2.3873,-6.2229,-3.2058,1.4591,1.1156,-2.9817,-21.3140,27.9863,-6.2938,75.0781,97.0781,-6.6406,0.00000000,0.00000000,0.00000000,
5.776632,-0.2606,-2.0789,-0.3036,-6.5028,-10.4236,-4.8166,1.4591,1.1156,-2.9817,-21.3140,27.9863,-6.2938,75.0781,97.0781,-6.6406,0.00000000,0.00000000,0.00000000,
5.779302,-0.3628,-1.0592,-0.1901,-6.5028,-10.4236,-4.8166,1.4591,1.1156,-2.9817,-21.3140,27.9863,-6.2938,75.0781,97.0781,-6.6406,0.00000000,0.00000000,0.00000000,
5.795706,-0.3628,-1.0592,-0.1901,-6.5028,-10.4236,-4.8166,0.8839,1.5489,-4.1730,-21.3140,27.9863,-6.2938,75.0781,97.0781,-6.6406,0.00000000,0.00000000,0.00000000,
5.814098,-0.3628,-1.0592,-0.1901,-6.5028,-10.4236,-4.8166,0.8839,1.5489,-4.1730,-21.3140,27.9863,-6.2938,75.7656,96.5938,-6.2812,0.00000000,0.00000000,0.00000000,
5.830295,-0.3628,-1.0592,-0.1901,-6.5028,-10.4236,-4.8166,0.8839,1.5489,-4.1730,-27.5972,20.0314,-9.4736,75.7656,96.5938,-6.2812,0.00000000,0.00000000,0.00000000,
5.840512,-0.3628,-1.0592,-0.1901,-8.4588,-0.7902,-3.4779,0.8839,1.5489,-4.1730,-27.5972,20.0314,-9.4736,75.7656,96.5938,-6.2812,0.00000000,0.00000000,0.00000000,
5.844967,-0.3628,-1.0592,-0.1901,-8.4926,-0.8942,-3.4990,0.8839,1.5489,-4.1730,-27.5972,20.0314,-9.4736,75.7656,96.5938,-6.2812,0.00000000,0.00000000,0.00000000,
5.847895,-0.5895,-0.2793,0.1944,-8.4926,-0.8942,-3.4990,0.8839,1.5489,-4.1730,-27.5972,20.0314,-9.4736,75.7656,96.5938,-6.2812,0.00000000,0.00000000,0.00000000,
5.863946,-0.5895,-0.2793,0.1944,-8.4926,-0.8942,-3.4990,0.8839,1.5489,-4.1730,-27.5972,20.0314,-9.4736,78.0469,95.2969,-4.5469,0.00000000,0.00000000,0.00000000,
5.867406,-0.5895,-0.2793,0.1944,-8.4926,-0.8942,-3.4990,-0.9035,1.9276,-0.9402,-27.5972,20.0314,-9.4736,78.0469,95.2969,-4.5469,0.00000000,0.00000000,0.00000000,
5.889752,-0.5895,-0.2793,0.1944,-8.4926,-0.8942,-3.4990,-0.9035,1.9276,-0.9402,-27.8666,19.6566,-9.9892,78.0469,95.2969,-4.5469,0.00000000,0.00000000,0.00000000,
5.895522,-0.5895,-0.2793,0.1944,-10.1663,5.7310,-0.0220,-0.9035,1.9276,-0.9402,-27.8666,19.6566,-9.9892,78.0469,95.2969,-4.5469,0.00000000,0.00000000,0.00000000,
5.898907,-0.5895,-0.2793,0.1944,-10.1663,5.7310,-0.0220,-0.9035,1.9276,-0.9402,-27.8666,19.6566,-9.9892,81.2500,93.2031,-2.4219,0.00000000,0.00000000,0.00000000,
5.918868,-0.5895,-0.2793,0.1944,-10.1663,5.7310,-0.0220,-1.7159,2.5378,0.9096,-27.8666,19.6566,-9.9892,81.2500,93.2031,-2.4219,0.00000000,0.00000000,0.00000000,
5.922164,-0.5009,-0.4537,0.4262,-10.1663,5.7310,-0.0220,-1.7159,2.5378,0.9096,-27.8666,19.6566,-9.9892,81.2500,93.2031,-2.4219,0.00000000,0.00000000,0.00000000,
5.938200,-0.5009,-0.4537,0.4262,-10.1663,5.7310,-0.0220,-1.7159,2.5378,0.9096,-27.8666,19.6566,-9.9892,85.2812,90.4375,0.0469,0.00000000,0.00000000,0.00000000,
5.949804,-0.5009,-0.4537,0.4262,-10.1663,5.7310,-0.0220,-1.7159,2.5378,0.9096,-22.2390,24.7705,-11.1114,85.2812,90.4375,0.0469,0.00000000,0.00000000,0.00000000,
5.959423,-0.5009,-0.4537,0.4262,-8.5675,4.6154,2.4346,-1.7159,2.5378,0.9096,-22.2390,24.7705,-11.1114,85.2812,90.4375,0.0469,0.00000000,0.00000000,0.00000000,
5.964510,-0.5009,-0.4537,0.4262,-7.4669,4.9191,2.6777,-1.7159,2.5378,0.9096,-22.2390,24.7705,-11.1114,85.2812,90.4375,0.0469,0.00000000,0.00000000,0.00000000,
5.982818,-0.3263,-0.7743,0.3073,-7.4669,4.9191,2.6777,-1.7159,2.5378,0.9096,-22.2390,24.7705,-11.1114,85.2812,90.4375,0.0469,0.00000000,0.00000000,0.00000000,
5.985936,-0.3263,-0.7743,0.3073,-7.4669,4.9191,2.6777,-1.7159,2.5378,0.9096,-22.2390,24.7705,-11.1114,91.6562,85.4375,3.9062,0.00000000,0.00000000,0.00000000,
5.988004,-0.3263,-0.7743,0.3073,-7.4669,4.9191,2.6777,-2.0662,3.2107,2.3223,-22.2390,24.7705,-11.1114,91.6562,85.4375,3.9062,0.00000000,0.00000000,0.00000000,
6.017226,-0.3263,-0.7743,0.3073,-4.8881,2.4680,2.4340,-2.0662,3.2107,2.3223,-22.2390,24.7705,-11.1114,91.6562,85.4375,3.9062,0.00000000,0.00000000,0.00000000,
6.022467,-0.3263,-0.7743,0.3073,-4.8881,2.4680,2.4340,-2.0662,3.2107,2.3223,-22.2390,24.7705,-11.1114,101.4531,76.7812,11.5938,0.00000000,0.00000000,0.00000000,
6.026740,-0.3263,-0.7743,0.3073,-4.8881,2.4680,2.4340,-2.6373,3.0726,2.9776,-22.2390,24.7705,-11.1114,101.4531,76.7812,11.5938,0.00000000,0.00000000,0.00000000,
6.029424,-0.3263,-0.7743,0.3073,-4.8881,2.4680,2.4340,-2.6373,3.0726,2.9776,-14.6472,31.1799,-9.5874,101.4531,76.7812,11.5938,0.00000000,0.00000000,0.00000000,
6.045675,-0.0552,-1.2360,0.3217,-4.8881,2.4680,2.4340,-2.6373,3.0726,2.9776,-14.6472,31.1799,-9.5874,101.4531,76.7812,11.5938,0.00000000,0.00000000,0.00000000,
6.064693,-0.0552,-1.2360,0.3217,-4.8881,2.4680,2.4340,-2.6373,3.0726,2.9776,-14.6472,31.1799,-9.5874,114.1094,65.6719,22.0312,0.00000000,0.00000000,0.00000000,
6.079550,-0.0552,-1.2360,0.3217,-1.4076,-1.3620,2.8935,-2.6373,3.0726,2.9776,-14.6472,31.1799,-9.5874,114.1094,65.6719,22.0312,0.00000000,0.00000000,0.00000000,
6.084568,-0.0552,-1.2360,0.3217,-0.3181,-1.4551,3.8829,-2.6373,3.0726,2.9776,-14.6472,31.1799,-9.5874,114.1094,65.6719,22.0312,0.00000000,0.00000000,0.00000000,
6.093127,-0.0552,-1.2360,0.3217,-0.3181,-1.4551,3.8829,-2.6373,3.0726,2.9776,-5.4970,35.5647,-4.2284,114.1094,65.6719,22.0312,0.00000000,0.00000000,0.00000000,
6.118858,-0.0552,-1.2360,0.3217,-0.3181,-1.4551,3.8829,-2.6373,3.0726,2.9776,-5.4970,35.5647,-4.2284,124.9062,58.3906,28.4844,0.00000000,0.00000000,0.00000000,
6.122586,0.3352,-1.4944,0.5433,-0.3181,-1.4551,3.8829,-2.6373,3.0726,2.9776,-5.4970,35.5647,-4.2284,124.9062,58.3906,28.4844,0.00000000,0.00000000,0.00000000,
6.124945,0.3352,-1.4944,0.5433,-0.3181,-1.4551,3.8829,-2.3661,3.7260,2.7628,-5.4970,35.5647,-4.2284,124.9062,58.3906,28.4844,0.00000000,0.00000000,0.00000000,
6.138795,0.3352,-1.4944,0.5433,3.2899,-4.6506,5.8802,-2.3661,3.7260,2.7628,-5.4970,35.5647,-4.2284,124.9062,58.3906,28.4844,0.00000000,0.00000000,0.00000000,
6.146816,0.3352,-1.4944,0.5433,3.2899,-4.6506,5.8802,-2.3661,3.7260,2.7628,-5.4970,35.5647,-4.2284,134.7812,58.7031,28.3438,0.00000000,0.00000000,0.00000000,
6.149523,0.3352,-1.4944,0.5433,3.2899,-4.6506,5.8802,-2.3661,3.7260,2.7628,2.4222,37.8543,-0.0645,134.7812,58.7031,28.3438,0.00000000,0.00000000,0.00000000,
6.178728,0.4937,-1.4119,0.9117,3.2899,-4.6506,5.8802,-2.3661,3.7260,2.7628,2.4222,37.8543,-0.0645,134.7812,58.7031,28.3438,0.00000000,0.00000000,0.00000000,
6.187471,0.4937,-1.4119,0.9117,3.2899,-4.6506,5.8802,-1.2157,3.3701,1.5479,2.4222,37.8543,-0.0645,134.7812,58.7031,28.3438,0.00000000,0.00000000,0.00000000,
6.192237,0.4937,-1.4119,0.9117,3.2899,-4.6506,5.8802,-1.2157,3.3701,1.5479,2.4222,37.8543,-0.0645,138.2344,62.7344,24.4062,0.00000000,0.00000000,0.00000000,
6.199910,0.4937,-1.4119,0.9117,6.6249,-6.1843,10.1017,-1.2157,3.3701,1.5479,2.4222,37.8543,-0.0645,138.2344,62.7344,24.4062,0.00000000,0.00000000,0.00000000,
6.202675,0.4937,-1.4119,0.9117,6.5389,-6.2093,10.3221,-1.2157,3.3701,1.5479,2.4222,37.8543,-0.0645,138.2344,62.7344,24.4062,0.00000000,0.00000000,0.00000000,
6.227598,0.4937,-1.4119,0.9117,6.5389,-6.2093,10.3221,0.4765,0.8605,-0.0919,2.4222,37.8543,-0.0645,138.2344,62.7344,24.4062,0.00000000,0.00000000,0.00000000,
6.234018,0.4937,-1.4119,0.9117,6.5389,-6.2093,10.3221,0.4765,0.8605,-0.0919,5.6318,38.2065,2.3181,138.2344,62.7344,24.4062,0.00000000,0.00000000,0.00000000,
6.237920,0.4937,-1.4119,0.9117,6.5389,-6.2093,10.3221,0.4765,0.8605,-0.0919,5.6318,38.2065,2.3181,140.8125,69.5312,17.7344,0.00000000,0.00000000,0.00000000,
6.249560,-0.1768,-1.2191,-0.0577,6.5389,-6.2093,10.3221,0.4765,0.8605,-0.0919,5.6318,38.2065,2.3181,140.8125,69.5312,17.7344,0.00000000,0.00000000,0.00000000,
6.262051,-0.1768,-1.2191,-0.0577,5.4614,-4.8697,11.6161,0.4765,0.8605,-0.0919,5.6318,38.2065,2.3181,140.8125,69.5312,17.7344,0.00000000,0.00000000,0.00000000,
6.271739,-0.1768,-1.2191,-0.0577,5.4614,-4.8697,11.6161,0.4765,0.8605,-0.0919,5.6318,38.2065,2.3181,142.3906,77.6719,10.4531,0.00000000,0.00000000,0.00000000,
6.290064,-0.1768,-1.2191,-0.0577,5.4614,-4.8697,11.6161,0.4765,0.8605,-0.0919,4.6260,37.0885,1.3753,142.3906,77.6719,10.4531,0.00000000,0.00000000,0.00000000,
6.307454,-0.0655,-1.1601,0.0924,5.4614,-4.8697,11.6161,0.4765,0.8605,-0.0919,4.6260,37.0885,1.3753,142.3906,77.6719,10.4531,0.00000000,0.00000000,0.00000000,
6.311859,-0.0655,-1.1601,0.0924,5.4614,-4.8697,11.6161,0.7278,-0.8972,-0.9926,4.6260,37.0885,1.3753,142.3906,77.6719,10.4531,0.00000000,0.00000000,0.00000000,
6.315049,-0.0655,-1.1601,0.0924,5.4614,-4.8697,11.6161,0.7278,-0.8972,-0.9926,4.6260,37.0885,1.3753,142.7500,86.6250,3.1250,0.00000000,0.00000000,0.00000000,
6.323375,-0.0655,-1.1601,0.0924,-1.8140,-1.8830,-0.5950,0.7278,-0.8972,-0.9926,4.6260,37.0885,1.3753,142.7500,86.6250,3.1250,0.00000000,0.00000000,0.00000000,
6.325567,-0.0655,-1.1601,0.0924,-2.0922,-1.7299,-0.9379,0.7278,-0.8972,-0.9926,4.6260,37.0885,1.3753,142.7500,86.6250,3.1250,0.00000000,0.00000000,0.00000000,
6.348801,-0.0655,-1.1601,0.0924,-2.0922,-1.7299,-0.9379,0.7278,-0.8972,-0.9926,0.8675,37.1021,-1.1429,142.7500,86.6250,3.1250,0.00000000,0.00000000,0.00000000,
6.354430,-0.0655,-1.1601,0.0924,-2.0922,-1.7299,-0.9379,0.7278,-0.8972,-0.9926,0.8675,37.1021,-1.1429,140.1406,96.0000,-3.6875,0.00000000,0.00000000,0.00000000,
6.376711,-0.0655,-1.1601,0.0924,0.3717,-0.6076,0.9231,0.7278,-0.8972,-0.9926,0.8675,37.1021,-1.1429,140.1406,96.0000,-3.6875,0.00000000,0.00000000,0.00000000,
6.378109,-0.0848,-0.9633,-0.1767,0.3717,-0.6076,0.9231,0.7278,-0.8972,-0.9926,0.8675,37.1021,-1.1429,140.1406,96.0000,-3.6875,0.00000000,0.00000000,0.00000000,
6.386440,-0.0848,-0.9633,-0.1767,0.3717,-0.6076,0.9231,0.6166,0.0378,-0.7549,0.8675,37.1021,-1.1429,140.1406,96.0000,-3.6875,0.00000000,0.00000000,0.00000000,
6.397151,-0.0848,-0.9633,-0.1767,0.3717,-0.6076,0.9231,0.6166,0.0378,-0.7549,0.8675,37.1021,-1.1429,142.9219,103.8125,-8.4531,0.00000000,0.00000000,0.00000000,
6.430407,-0.0848,-0.9633,-0.1767,0.3717,-0.6076,0.9231,0.4772,0.1398,-0.5557,0.8675,37.1021,-1.1429,142.9219,103.8125,-8.4531,0.00000000,0.00000000,0.00000000,
6.434412,-0.0848,-0.9633,-0.1767,0.3717,-0.6076,0.9231,0.4772,0.1398,-0.5557,-0.1543,37.7011,-3.2350,142.9219,103.8125,-8.4531,0.00000000,0.00000000,0.00000000,
6.441232,-0.0848,-0.9633,-0.1767,-0.2500,0.0135,-0.0499,0.4772,0.1398,-0.5557,-0.1543,37.7011,-3.2350,142.9219,103.8125,-8.4531,0.00000000,0.00000000,0.00000000,
6.444295,-0.0848,-0.9633,-0.1767,-0.2500,0.0135,-0.0499,0.4772,0.1398,-0.5557,-0.1543,37.7011,-3.2350,148.0312,109.2031,-10.5938,0.00000000,0.00000000,0.00000000,
6.446682,-0.0848,-0.9633,-0.1767,-0.4618,0.0496,-0.2242,0.4772,0.1398,-0.5557,-0.1543,37.7011,-3.2350,148.0312,109.2031,-10.5938,0.00000000,0.00000000,0.00000000,
6.449041,-0.0430,-0.9779,-0.1350,-0.4618,0.0496,-0.2242,0.4772,0.1398,-0.5557,-0.1543,37.7011,-3.2350,148.0312,109.2031,-10.5938,0.00000000,0.00000000,0.00000000,
6.482079,-0.0430,-0.9779,-0.1350,-0.4618,0.0496,-0.2242,0.4772,0.1398,-0.5557,-0.1543,37.7011,-3.2350,152.7812,111.3438,-10.7969,0.00000000,0.00000000,0.00000000,
6.490728,-0.0430,-0.9779,-0.1350,-0.4618,0.0496,-0.2242,0.4772,0.1398,-0.5557,-1.7930,37.6820,-4.4777,152.7812,111.3438,-10.7969,0.00000000,0.00000000,0.00000000,
6.507967,-0.0430,-0.9779,-0.1350,-0.1377,-0.1774,-0.2852,0.4772,0.1398,-0.5557,-1.7930,37.6820,-4.4777,152.7812,111.3438,-10.7969,0.00000000,0.00000000,0.00000000,
6.514825,-0.0430,-0.9779,-0.1350,-0.1377,-0.1774,-0.2852,0.3486,0.1612,-0.3067,-1.7930,37.6820,-4.4777,152.7812,111.3438,-10.7969,0.00000000,0.00000000,0.00000000,
6.517589,-0.0144,-0.9869,-0.1181,-0.1377,-0.1774,-0.2852,0.3486,0.1612,-0.3067,-1.7930,37.6820,-4.4777,152.7812,111.3438,-10.7969,0.00000000,0.00000000,0.00000000,
6.524914,-0.0144,-0.9869,-0.1181,-0.1377,-0.1774,-0.2852,0.3486,0.1612,-0.3067,-1.7930,37.6820,-4.4777,155.5781,110.3125,-9.9844,0.00000000,0.00000000,0.00000000,
6.549782,-0.0144,-0.9869,-0.1181,-0.1377,-0.1774,-0.2852,0.3486,0.1612,-0.3067,-2.2801,36.7123,-4.9939,155.5781,110.3125,-9.9844,0.00000000,0.00000000,0.00000000,
6.559618,-0.0144,-0.9869,-0.1181,-0.0228,-0.0977,-0.1583,0.3486,0.1612,-0.3067,-2.2801,36.7123,-4.9939,155.5781,110.3125,-9.9844,0.00000000,0.00000000,0.00000000,
6.564465,-0.0144,-0.9869,-0.1181,-0.0747,-0.0862,-0.2479,0.3486,0.1612,-0.3067,-2.2801,36.7123,-4.9939,155.5781,110.3125,-9.9844,0.00000000,0.00000000,0.00000000,
6.566935,-0.0144,-0.9869,-0.1181,-0.0747,-0.0862,-0.2479,0.3486,0.1612,-0.3067,-2.2801,36.7123,-4.9939,156.4062,108.1875,-8.6094,0.00000000,0.00000000,0.00000000,
6.581994,-0.0046,-0.9849,-0.1082,-0.0747,-0.0862,-0.2479,0.3486,0.1612,-0.3067,-2.2801,36.7123,-4.9939,156.4062,108.1875,-8.6094,0.00000000,0.00000000,0.00000000,
6.588432,-0.0046,-0.9849,-0.1082,-0.0747,-0.0862,-0.2479,0.2511,0.1815,-0.1231,-2.2801,36.7123,-4.9939,156.4062,108.1875,-8.6094,0.00000000,0.00000000,0.00000000,
6.605637,-0.0046,-0.9849,-0.1082,-0.0747,-0.0862,-0.2479,0.2511,0.1815,-0.1231,-2.2801,36.7123,-4.9939,157.1562,105.3594,-6.8125,0.00000000,0.00000000,0.00000000,
6.623599,-0.0046,-0.9849,-0.1082,-0.0474,-0.0471,-0.2612,0.2511,0.1815,-0.1231,-2.2801,36.7123,-4.9939,157.1562,105.3594,-6.8125,0.00000000,0.00000000,0.00000000,
6.630302,-0.0046,-0.9849,-0.1082,-0.0474,-0.0471,-0.2612,0.2776,0.2143,-0.1884,-2.2801,36.7123,-4.9939,157.1562,105.3594,-6.8125,0.00000000,0.00000000,0.00000000,
6.633777,-0.0046,-0.9849,-0.1082,-0.0474,-0.0471,-0.2612,0.2776,0.2143,-0.1884,-2.1547,36.9887,-5.2944,157.1562,105.3594,-6.8125,0.00000000,0.00000000,0.00000000,
6.641354,0.0067,-0.9877,-0.0846,-0.0474,-0.0471,-0.2612,0.2776,0.2143,-0.1884,-2.1547,36.9887,-5.2944,157.1562,105.3594,-6.8125,0.00000000,0.00000000,0.00000000,
6.646765,0.0067,-0.9877,-0.0846,-0.0474,-0.0471,-0.2612,0.2776,0.2143,-0.1884,-2.1547,36.9887,-5.2944,156.6562,103.2500,-4.9844,0.00000000,0.00000000,0.00000000,
6.683747,0.0067,-0.9877,-0.0846,-0.0463,-0.0478,-0.1406,0.2776,0.2143,-0.1884,-2.1547,36.9887,-5.2944,156.6562,103.2500,-4.9844,0.00000000,0.00000000,0.00000000,
6.688674,0.0067,-0.9877,-0.0846,-0.1445,-0.0415,-0.2345,0.2776,0.2143,-0.1884,-2.1547,36.9887,-5.2944,156.6562,103.2500,-4.9844,0.00000000,0.00000000,0.00000000,
6.691912,0.0067,-0.9877,-0.0846,-0.1445,-0.0415,-0.2345,0.2776,0.2143,-0.1884,-2.1547,36.9887,-5.2944,160.1562,101.5312,-3.5938,0.00000000,0.00000000,0.00000000,
6.695287,0.0067,-0.9877,-0.0846,-0.1445,-0.0415,-0.2345,0.2776,0.2143,-0.1884,-2.8922,36.0045,-6.6613,160.1562,101.5312,-3.5938,0.00000000,0.00000000,0.00000000,
6.714038,0.0067,-0.9877,-0.0846,-0.1445,-0.0415,-0.2345,0.2886,0.2857,-0.2721,-2.8922,36.0045,-6.6613,160.1562,101.5312,-3.5938,0.00000000,0.00000000,0.00000000,
6.719960,0.0177,-1.0096,-0.0991,-0.1445,-0.0415,-0.2345,0.2886,0.2857,-0.2721,-2.8922,36.0045,-6.6613,160.1562,101.5312,-3.5938,0.00000000,0.00000000,0.00000000,
6.733214,0.0177,-1.0096,-0.0991,-0.1445,-0.0415,-0.2345,0.2886,0.2857,-0.2721,-2.8922,36.0045,-6.6613,163.5625,100.1094,-2.2656,0.00000000,0.00000000,0.00000000,
6.746977,0.0177,-1.0096,-0.0991,-0.1192,-0.1314,-0.3482,0.2886,0.2857,-0.2721,-2.8922,36.0045,-6.6613,163.5625,100.1094,-2.2656,0.00000000,0.00000000,0.00000000,
6.753151,0.0177,-1.0096,-0.0991,-0.1192,-0.1314,-0.3482,0.2886,0.2857,-0.2721,-4.4099,35.5707,-7.7867,163.5625,100.1094,-2.2656,0.00000000,0.00000000,0.00000000,
6.772620,0.0177,-1.0096,-0.0991,-0.1192,-0.1314,-0.3482,0.2886,0.2857,-0.2721,-4.4099,35.5707,-7.7867,163.3438,98.9531,-1.2188,0.00000000,0.00000000,0.00000000,
6.787630,0.0248,-1.0819,-0.0875,-0.1192,-0.1314,-0.3482,0.2886,0.2857,-0.2721,-4.4099,35.5707,-7.7867,163.3438,98.9531,-1.2188,0.00000000,0.00000000,0.00000000,
6.792901,0.0248,-1.0819,-0.0875,-0.1192,-0.1314,-0.3482,0.6040,0.4118,-0.4975,-4.4099,35.5707,-7.7867,163.3438,98.9531,-1.2188,0.00000000,0.00000000,0.00000000,
6.804341,0.0248,-1.0819,-0.0875,-0.2464,-0.5136,-0.7108,0.6040,0.4118,-0.4975,-4.4099,35.5707,-7.7867,163.3438,98.9531,-1.2188,0.00000000,0.00000000,0.00000000,
6.808450,0.0248,-1.0819,-0.0875,-0.5174,-0.5176,-1.0399,0.6040,0.4118,-0.4975,-4.4099,35.5707,-7.7867,163.3438,98.9531,-1.2188,0.00000000,0.00000000,0.00000000,
6.814389,0.0248,-1.0819,-0.0875,-0.5174,-0.5176,-1.0399,0.6040,0.4118,-0.4975,-4.4099,35.5707,-7.7867,164.9219,98.2031,-0.6562,0.00000000,0.00000000,0.00000000,
6.829740,0.0248,-1.0819,-0.0875,-0.5174,-0.5176,-1.0399,0.6040,0.4118,-0.4975,-5.0335,34.8623,-9.2921,164.9219,98.2031,-0.6562,0.00000000,0.00000000,0.00000000,
6.835019,0.0248,-1.0819,-0.0875,-0.5174,-0.5176,-1.0399,1.2051,0.4372,-1.0602,-5.0335,34.8623,-9.2921,164.9219,98.2031,-0.6562,0.00000000,0.00000000,0.00000000,
6.843094,0.0200,-1.3049,0.0060,-0.5174,-0.5176,-1.0399,1.2051,0.4372,-1.0602,-5.0335,34.8623,-9.2921,164.9219,98.2031,-0.6562,0.00000000,0.00000000,0.00000000,
6.855257,0.0200,-1.3049,0.0060,-0.5174,-0.5176,-1.0399,1.2051,0.4372,-1.0602,-5.0335,34.8623,-9.2921,165.1094,97.6250,-0.3281,0.00000000,0.00000000,0.00000000,
6.862779,0.0200,-1.3049,0.0060,-0.7592,-1.7446,-1.1369,1.2051,0.4372,-1.0602,-5.0335,34.8623,-9.2921,165.1094,97.6250,-0.3281,0.00000000,0.00000000,0.00000000,
6.890582,0.0200,-1.3049,0.0060,-0.7592,-1.7446,-1.1369,1.2051,0.4372,-1.0602,-8.9529,31.8504,-14.4601,165.1094,97.6250,-0.3281,0.00000000,0.00000000,0.00000000,
6.896849,0.0200,-1.3049,0.0060,-0.7592,-1.7446,-1.1369,1.2051,0.4372,-1.0602,-8.9529,31.8504,-14.4601,167.8906,97.0000,0.0312,0.00000000,0.00000000,0.00000000,
6.914885,-0.2123,-1.9447,-0.1691,-0.7592,-1.7446,-1.1369,1.2051,0.4372,-1.0602,-8.9529,31.8504,-14.4601,167.8906,97.0000,0.0312,0.00000000,0.00000000,0.00000000,
6.918225,-0.2123,-1.9447,-0.1691,-0.7592,-1.7446,-1.1369,1.7765,0.1035,-2.4250,-8.9529,31.8504,-14.4601,167.8906,97.0000,0.0312,0.00000000,0.00000000,0.00000000,
6.924550,-0.2123,-1.9447,-0.1691,-2.3072,-5.2169,-0.5495,1.7765,0.1035,-2.4250,-8.9529,31.8504,-14.4601,167.8906,97.0000,0.0312,0.00000000,0.00000000,0.00000000,
6.927889,-0.2123,-1.9447,-0.1691,-3.3656,-5.5126,-1.2496,1.7765,0.1035,-2.4250,-8.9529,31.8504,-14.4601,167.8906,97.0000,0.0312,0.00000000,0.00000000,0.00000000,
6.938278,-0.2123,-1.9447,-0.1691,-3.3656,-5.5126,-1.2496,1.7765,0.1035,-2.4250,-8.9529,31.8504,-14.4601,166.0781,96.3750,0.5312,0.00000000,0.00000000,0.00000000,
6.954671,-0.2123,-1.9447,-0.1691,-3.3656,-5.5126,-1.2496,1.7765,0.1035,-2.4250,-17.1566,25.7510,-18.3002,166.0781,96.3750,0.5312,0.00000000,0.00000000,0.00000000,
6.980912,-0.2123,-1.9447,-0.1691,-6.9028,-11.8196,-6.0251,1.7765,0.1035,-2.4250,-17.1566,25.7510,-18.3002,166.0781,96.3750,0.5312,0.00000000,0.00000000,0.00000000,
6.984535,-0.3287,-1.7877,-0.5851,-6.9028,-11.8196,-6.0251,1.7765,0.1035,-2.4250,-17.1566,25.7510,-18.3002,166.0781,96.3750,0.5312,0.00000000,0.00000000,0.00000000,
6.986586,-0.3287,-1.7877,-0.5851,-6.9028,-11.8196,-6.0251,1.7765,0.1035,-2.4250,-17.1566,25.7510,-18.3002,168.6719,95.8750,1.1562,0.00000000,0.00000000,0.00000000,
6.999237,-0.3287,-1.7877,-0.5851,-6.9028,-11.8196,-6.0251,2.0459,0.2377,-4.9442,-17.1566,25.7510,-18.3002,168.6719,95.8750,1.1562,0.00000000,0.00000000,0.00000000,
7.021827,-0.3287,-1.7877,-0.5851,-6.9028,-11.8196,-6.0251,2.0459,0.2377,-4.9442,-17.1566,25.7510,-18.3002,168.1562,95.3750,1.8750,0.00000000,0.00000000,0.00000000,
7.029703,-0.3287,-1.7877,-0.5851,-6.9028,-11.8196,-6.0251,2.0459,0.2377,-4.9442,-24.2539,16.4343,-23.2277,168.1562,95.3750,1.8750,0.00000000,0.00000000,0.00000000,
7.033665,-0.3287,-1.7877,-0.5851,-6.9028,-11.8196,-6.0251,0.5683,0.2290,-1.1487,-24.2539,16.4343,-23.2277,168.1562,95.3750,1.8750,0.00000000,0.00000000,0.00000000,
7.052737,-0.3287,-1.7877,-0.5851,-9.1822,-6.1847,-8.1432,0.5683,0.2290,-1.1487,-24.2539,16.4343,-23.2277,168.1562,95.3750,1.8750,0.00000000,0.00000000,0.00000000,
7.055856,-0.5711,-0.3199,-0.3414,-9.1822,-6.1847,-8.1432,0.5683,0.2290,-1.1487,-24.2539,16.4343,-23.2277,168.1562,95.3750,1.8750,0.00000000,0.00000000,0.00000000,
7.058051,-0.5711,-0.3199,-0.3414,-9.2108,-6.2830,-8.1491,0.5683,0.2290,-1.1487,-24.2539,16.4343,-23.2277,168.1562,95.3750,1.8750,0.00000000,0.00000000,0.00000000,
7.072434,-0.5711,-0.3199,-0.3414,-9.2108,-6.2830,-8.1491,0.5683,0.2290,-1.1487,-24.2539,16.4343,-23.2277,170.3281,94.7812,2.9844,0.00000000,0.00000000,0.00000000,
7.089477,-0.5711,-0.3199,-0.3414,-9.2108,-6.2830,-8.1491,0.5683,0.2290,-1.1487,-24.7935,17.2452,-21.0452,170.3281,94.7812,2.9844,0.00000000,0.00000000,0.00000000,
7.102597,-0.5711,-0.3199,-0.3414,-11.0970,3.7855,-6.2236,0.5683,0.2290,-1.1487,-24.7935,17.2452,-21.0452,170.3281,94.7812,2.9844,0.00000000,0.00000000,0.00000000,
7.106468,-0.5711,-0.3199,-0.3414,-11.0970,3.7855,-6.2236,0.5683,0.2290,-1.1487,-24.7935,17.2452,-21.0452,173.1562,94.9688,4.6875,0.00000000,0.00000000,0.00000000,
7.114863,-0.5711,-0.3199,-0.3414,-11.0970,3.7855,-6.2236,-1.2423,-0.2252,1.5368,-24.7935,17.2452,-21.0452,173.1562,94.9688,4.6875,0.00000000,0.00000000,0.00000000,
7.117763,-0.3569,-0.4657,-0.0852,-11.0970,3.7855,-6.2236,-1.2423,-0.2252,1.5368,-24.7935,17.2452,-21.0452,173.1562,94.9688,4.6875,0.00000000,0.00000000,0.00000000,
7.147222,-0.3569,-0.4657,-0.0852,-11.0970,3.7855,-6.2236,-1.2423,-0.2252,1.5368,-24.7935,17.2452,-21.0452,178.4531,82.6562,7.2188,0.00000000,0.00000000,0.00000000,
7.150828,-0.3569,-0.4657,-0.0852,-11.0970,3.7855,-6.2236,-1.2423,-0.2252,1.5368,-20.8576,22.8796,-19.6741,178.4531,82.6562,7.2188,0.00000000,0.00000000,0.00000000,
7.163999,-0.3569,-0.4657,-0.0852,-7.9656,3.6491,-2.9223,-1.2423,-0.2252,1.5368,-20.8576,22.8796,-19.6741,178.4531,82.6562,7.2188,0.00000000,0.00000000,0.00000000,
7.168246,-0.3569,-0.4657,-0.0852,-6.6265,4.2308,-2.4262,-1.2423,-0.2252,1.5368,-20.8576,22.8796,-19.6741,178.4531,82.6562,7.2188,0.00000000,0.00000000,0.00000000,
7.184346,-0.2072,-0.8048,0.0792,-6.6265,4.2308,-2.4262,-1.2423,-0.2252,1.5368,-20.8576,22.8796,-19.6741,178.4531,82.6562,7.2188,0.00000000,0.00000000,0.00000000,
7.192486,-0.2072,-0.8048,0.0792,-6.6265,4.2308,-2.4262,-1.2423,-0.2252,1.5368,-20.8576,22.8796,-19.6741,182.0156,77.7656,11.1562,0.00000000,0.00000000,0.00000000,
7.195899,-0.2072,-0.8048,0.0792,-6.6265,4.2308,-2.4262,-1.9342,1.2311,3.3302,-20.8576,22.8796,-19.6741,182.0156,77.7656,11.1562,0.00000000,0.00000000,0.00000000,
7.223556,-0.2072,-0.8048,0.0792,-3.8025,1.6682,-0.0926,-1.9342,1.2311,3.3302,-20.8576,22.8796,-19.6741,182.0156,77.7656,11.1562,0.00000000,0.00000000,0.00000000,
7.227944,-0.2072,-0.8048,0.0792,-3.8025,1.6682,-0.0926,-1.9342,1.2311,3.3302,-12.3125,30.6466,-15.6063,182.0156,77.7656,11.1562,0.00000000,0.00000000,0.00000000,
7.231422,-0.2072,-0.8048,0.0792,-3.8025,1.6682,-0.0926,-1.9342,1.2311,3.3302,-12.3125,30.6466,-15.6063,198.6562,58.0312,28.5000,0.00000000,0.00000000,0.00000000,
7.238226,-0.2072,-0.8048,0.0792,-3.8025,1.6682,-0.0926,-2.7504,0.7278,3.8449,-12.3125,30.6466,-15.6063,198.6562,58.0312,28.5000,0.00000000,0.00000000,0.00000000,
7.243619,-0.0566,-1.2979,0.0968,-3.8025,1.6682,-0.0926,-2.7504,0.7278,3.8449,-12.3125,30.6466,-15.6063,198.6562,58.0312,28.5000,0.00000000,0.00000000,0.00000000,
7.272436,-0.0566,-1.2979,0.0968,-3.8025,1.6682,-0.0926,-2.7504,0.7278,3.8449,-12.3125,30.6466,-15.6063,207.1875,47.2656,37.2500,0.00000000,0.00000000,0.00000000,
7.286152,-0.0566,-1.2979,0.0968,-0.9661,-2.4375,0.9864,-2.7504,0.7278,3.8449,-12.3125,30.6466,-15.6063,207.1875,47.2656,37.2500,0.00000000,0.00000000,0.00000000,
7.290201,-0.0566,-1.2979,0.0968,0.5448,-2.5786,2.1124,-2.7504,0.7278,3.8449,-12.3125,30.6466,-15.6063,207.1875,47.2656,37.2500,0.00000000,0.00000000,0.00000000,
7.293092,-0.0566,-1.2979,0.0968,0.5448,-2.5786,2.1124,-2.7504,0.7278,3.8449,-1.9658,37.3637,-8.1483,207.1875,47.2656,37.2500,0.00000000,0.00000000,0.00000000,
7.315394,-0.0566,-1.2979,0.0968,0.5448,-2.5786,2.1124,-2.7504,0.7278,3.8449,-1.9658,37.3637,-8.1483,208.5781,44.4375,39.3594,0.00000000,0.00000000,0.00000000,
7.318541,-0.0566,-1.2979,0.0968,0.5448,-2.5786,2.1124,-3.0218,0.1039,4.1012,-1.9658,37.3637,-8.1483,208.5781,44.4375,39.3594,0.00000000,0.00000000,0.00000000,
7.320555,0.3192,-1.8301,0.2663,0.5448,-2.5786,2.1124,-3.0218,0.1039,4.1012,-1.9658,37.3637,-8.1483,208.5781,44.4375,39.3594,0.00000000,0.00000000,0.00000000,
7.345272,0.3192,-1.8301,0.2663,3.7077,-7.4552,4.3157,-3.0218,0.1039,4.1012,-1.9658,37.3637,-8.1483,208.5781,44.4375,39.3594,0.00000000,0.00000000,0.00000000,
7.350826,0.3192,-1.8301,0.2663,3.7077,-7.4552,4.3157,-3.0218,0.1039,4.1012,9.3198,40.6452,-0.1140,208.5781,44.4375,39.3594,0.00000000,0.00000000,0.00000000,
7.358218,0.3192,-1.8301,0.2663,3.7077,-7.4552,4.3157,-3.0218,0.1039,4.1012,9.3198,40.6452,-0.1140,205.2500,47.4844,37.8125,0.00000000,0.00000000,0.00000000,
7.376393,1.6503,-1.7646,0.7993,3.7077,-7.4552,4.3157,-3.0218,0.1039,4.1012,9.3198,40.6452,-0.1140,205.2500,47.4844,37.8125,0.00000000,0.00000000,0.00000000,
7.393219,1.6503,-1.7646,0.7993,3.7077,-7.4552,4.3157,-2.3045,-0.1864,2.9365,9.3198,40.6452,-0.1140,205.2500,47.4844,37.8125,0.00000000,0.00000000,0.00000000,
7.396386,1.6503,-1.7646,0.7993,3.7077,-7.4552,4.3157,-2.3045,-0.1864,2.9365,9.3198,40.6452,-0.1140,199.2188,53.0625,33.3750,0.00000000,0.00000000,0.00000000,
7.403866,1.6503,-1.7646,0.7993,13.7545,-10.6037,7.4494,-2.3045,-0.1864,2.9365,9.3198,40.6452,-0.1140,199.2188,53.0625,33.3750,0.00000000,0.00000000,0.00000000,
7.408131,1.6503,-1.7646,0.7993,13.8610,-10.7012,7.6238,-2.3045,-0.1864,2.9365,9.3198,40.6452,-0.1140,199.2188,53.0625,33.3750,0.00000000,0.00000000,0.00000000,
7.429613,1.6503,-1.7646,0.7993,13.8610,-10.7012,7.6238,-2.3045,-0.1864,2.9365,12.9276,39.7028,1.8807,199.2188,53.0625,33.3750,0.00000000,0.00000000,0.00000000,
7.436250,1.6503,-1.7646,0.7993,13.8610,-10.7012,7.6238,0.3456,-0.5853,-1.2363,12.9276,39.7028,1.8807,199.2188,53.0625,33.3750,0.00000000,0.00000000,0.00000000,
7.439089,1.6503,-1.7646,0.7993,13.8610,-10.7012,7.6238,0.3456,-0.5853,-1.2363,12.9276,39.7028,1.8807,192.9531,61.8125,25.2656,0.00000000,0.00000000,0.00000000,
7.443919,0.2597,-1.4051,0.1633,13.8610,-10.7012,7.6238,0.3456,-0.5853,-1.2363,12.9276,39.7028,1.8807,192.9531,61.8125,25.2656,0.00000000,0.00000000,0.00000000,
7.464895,0.2597,-1.4051,0.1633,20.6944,-7.5705,12.5233,0.3456,-0.5853,-1.2363,12.9276,39.7028,1.8807,192.9531,61.8125,25.2656,0.00000000,0.00000000,0.00000000,
7.481002,0.2597,-1.4051,0.1633,20.6944,-7.5705,12.5233,0.3456,-0.5853,-1.2363,12.9276,39.7028,1.8807,183.8281,71.8594,16.3281,0.00000000,0.00000000,0.00000000,
7.501443,0.2597,-1.4051,0.1633,20.6944,-7.5705,12.5233,0.3456,-0.5853,-1.2363,8.4018,40.9961,0.6537,183.8281,71.8594,16.3281,0.00000000,0.00000000,0.00000000,
7.516942,-0.0457,-1.2525,0.0364,20.6944,-7.5705,12.5233,0.3456,-0.5853,-1.2363,8.4018,40.9961,0.6537,183.8281,71.8594,16.3281,0.00000000,0.00000000,0.00000000,
7.522038,-0.0457,-1.2525,0.0364,20.6944,-7.5705,12.5233,0.7359,-1.0442,-2.1123,8.4018,40.9961,0.6537,183.8281,71.8594,16.3281,0.00000000,0.00000000,0.00000000,
7.524475,-0.0457,-1.2525,0.0364,20.6944,-7.5705,12.5233,0.7359,-1.0442,-2.1123,8.4018,40.9961,0.6537,172.0781,82.2969,7.5000,0.00000000,0.00000000,0.00000000,
7.526523,-0.0457,-1.2525,0.0364,-2.8196,-3.2655,-0.0581,0.7359,-1.0442,-2.1123,8.4018,40.9961,0.6537,172.0781,82.2969,7.5000,0.00000000,0.00000000,0.00000000,
7.528437,-0.0457,-1.2525,0.0364,-3.4329,-2.9968,-0.3726,0.7359,-1.0442,-2.1123,8.4018,40.9961,0.6537,172.0781,82.2969,7.5000,0.00000000,0.00000000,0.00000000,
7.549325,-0.0457,-1.2525,0.0364,-3.4329,-2.9968,-0.3726,0.7359,-1.0442,-2.1123,2.4334,40.5339,-1.7933,172.0781,82.2969,7.5000,0.00000000,0.00000000,0.00000000,
7.564596,-0.0457,-1.2525,0.0364,-3.4329,-2.9968,-0.3726,0.7359,-1.0442,-2.1123,2.4334,40.5339,-1.7933,157.0781,95.6406,-1.8281,0.00000000,0.00000000,0.00000000,
7.578057,-0.0750,-0.9962,-0.0868,-3.4329,-2.9968,-0.3726,0.7359,-1.0442,-2.1123,2.4334,40.5339,-1.7933,157.0781,95.6406,-1.8281,0.00000000,0.00000000,0.00000000,
7.587985,-0.0750,-0.9962,-0.0868,1.2721,-1.5540,1.6014,0.7359,-1.0442,-2.1123,2.4334,40.5339,-1.7933,157.0781,95.6406,-1.8281,0.00000000,0.00000000,0.00000000,
7.599463,-0.0750,-0.9962,-0.0868,1.2721,-1.5540,1.6014,0.5814,-0.2249,-0.8964,2.4334,40.5339,-1.7933,157.0781,95.6406,-1.8281,0.00000000,0.00000000,0.00000000,
7.607550,-0.0750,-0.9962,-0.0868,1.2721,-1.5540,1.6014,0.5814,-0.2249,-0.8964,2.4334,40.5339,-1.7933,145.9531,106.6250,-11.2500,0.00000000,0.00000000,0.00000000,
7.631479,-0.0750,-0.9962,-0.0868,1.2721,-1.5540,1.6014,0.5814,-0.2249,-0.8964,-0.4900,40.7572,-3.5903,145.9531,106.6250,-11.2500,0.00000000,0.00000000,0.00000000,
7.639470,-0.0750,-0.9962,-0.0868,1.2721,-1.5540,1.6014,0.2690,0.2535,-0.6764,-0.4900,40.7572,-3.5903,145.9531,106.6250,-11.2500,0.00000000,0.00000000,0.00000000,
7.645882,-0.0866,-0.9809,-0.1598,1.2721,-1.5540,1.6014,0.2690,0.2535,-0.6764,-0.4900,40.7572,-3.5903,145.9531,106.6250,-11.2500,0.00000000,0.00000000,0.00000000,
7.649635,-0.0866,-0.9809,-0.1598,-0.0059,-0.1943,0.2691,0.2690,0.2535,-0.6764,-0.4900,40.7572,-3.5903,145.9531,106.6250,-11.2500,0.00000000,0.00000000,0.00000000,
7.653011,-0.0866,-0.9809,-0.1598,-0.2767,-0.1527,0.1896,0.2690,0.2535,-0.6764,-0.4900,40.7572,-3.5903,145.9531,106.6250,-11.2500,0.00000000,0.00000000,0.00000000,
7.655491,-0.0866,-0.9809,-0.1598,-0.2767,-0.1527,0.1896,0.2690,0.2535,-0.6764,-0.4900,40.7572,-3.5903,136.8281,115.3281,-18.0781,0.00000000,0.00000000,0.00000000,
7.688975,-0.0866,-0.9809,-0.1598,-0.2767,-0.1527,0.1896,0.2690,0.2535,-0.6764,-0.4900,40.7572,-3.5903,130.6406,119.5469,-21.0156,0.00000000,0.00000000,0.00000000,
7.692655,-0.0866,-0.9809,-0.1598,-0.2767,-0.1527,0.1896,0.2690,0.2535,-0.6764,-2.5676,40.0034,-5.4747,130.6406,119.5469,-21.0156,0.00000000,0.00000000,0.00000000,
7.712810,-0.0866,-0.9809,-0.1598,-0.2424,-0.0982,-0.2248,0.2690,0.2535,-0.6764,-2.5676,40.0034,-5.4747,130.6406,119.5469,-21.0156,0.00000000,0.00000000,0.00000000,
7.715612,-0.0465,-0.9886,-0.1513,-0.2424,-0.0982,-0.2248,0.2690,0.2535,-0.6764,-2.5676,40.0034,-5.4747,130.6406,119.5469,-21.0156,0.00000000,0.00000000,0.00000000,
7.718310,-0.0465,-0.9886,-0.1513,-0.2424,-0.0982,-0.2248,0.2494,0.2813,-0.6944,-2.5676,40.0034,-5.4747,130.6406,119.5469,-21.0156,0.00000000,0.00000000,0.00000000,
7.729819,-0.0465,-0.9886,-0.1513,-0.2424,-0.0982,-0.2248,0.2494,0.2813,-0.6944,-2.5676,40.0034,-5.4747,133.6250,115.5781,-17.7656,0.00000000,0.00000000,0.00000000,
7.749916,-0.0465,-0.9886,-0.1513,-0.2424,-0.0982,-0.2248,0.2494,0.2813,-0.6944,-4.4182,40.1962,-5.3287,133.6250,115.5781,-17.7656,0.00000000,0.00000000,0.00000000,
7.772267,-0.0465,-0.9886,-0.1513,-0.1772,-0.1302,-0.2369,0.2494,0.2813,-0.6944,-4.4182,40.1962,-5.3287,133.6250,115.5781,-17.7656,0.00000000,0.00000000,0.00000000,
7.777489,-0.0465,-0.9886,-0.1513,-0.3881,-0.1123,-0.3322,0.2494,0.2813,-0.6944,-4.4182,40.1962,-5.3287,133.6250,115.5781,-17.7656,0.00000000,0.00000000,0.00000000,
7.781461,-0.0465,-0.9886,-0.1513,-0.3881,-0.1123,-0.3322,0.2494,0.2813,-0.6944,-4.4182,40.1962,-5.3287,136.8125,110.7656,-13.6719,0.00000000,0.00000000,0.00000000,
7.784678,-0.0112,-0.9925,-0.1373,-0.3881,-0.1123,-0.3322,0.2494,0.2813,-0.6944,-4.4182,40.1962,-5.3287,136.8125,110.7656,-13.6719,0.00000000,0.00000000,0.00000000,
7.799307,-0.0112,-0.9925,-0.1373,-0.3881,-0.1123,-0.3322,0.2665,0.2660,-0.4956,-4.4182,40.1962,-5.3287,136.8125,110.7656,-13.6719,0.00000000,0.00000000,0.00000000,
7.815376,-0.0112,-0.9925,-0.1373,-0.3881,-0.1123,-0.3322,0.2665,0.2660,-0.4956,-4.4182,40.1962,-5.3287,138.2812,106.6094,-9.6875,0.00000000,0.00000000,0.00000000,
7.826975,-0.0112,-0.9925,-0.1373,-0.1559,-0.1145,-0.3103,0.2665,0.2660,-0.4956,-4.4182,40.1962,-5.3287,138.2812,106.6094,-9.6875,0.00000000,0.00000000,0.00000000,
7.832537,-0.0112,-0.9925,-0.1373,-0.1559,-0.1145,-0.3103,0.2665,0.2660,-0.4956,-4.6335,40.3680,-6.4737,138.2812,106.6094,-9.6875,0.00000000,0.00000000,0.00000000,
7.841973,-0.0112,-0.9925,-0.1373,-0.1559,-0.1145,-0.3103,0.3443,0.3112,-0.3548,-4.6335,40.3680,-6.4737,138.2812,106.6094,-9.6875,0.00000000,0.00000000,0.00000000,
7.847041,0.0128,-1.0021,-0.1207,-0.1559,-0.1145,-0.3103,0.3443,0.3112,-0.3548,-4.6335,40.3680,-6.4737,138.2812,106.6094,-9.6875,0.00000000,0.00000000,0.00000000,
7.855262,0.0128,-1.0021,-0.1207,-0.1559,-0.1145,-0.3103,0.3443,0.3112,-0.3548,-4.6335,40.3680,-6.4737,139.8750,104.2344,-7.7344,0.00000000,0.00000000,0.00000000,
7.887439,0.0128,-1.0021,-0.1207,-0.1109,-0.1704,-0.2573,0.3443,0.3112,-0.3548,-4.6335,40.3680,-6.4737,139.8750,104.2344,-7.7344,0.00000000,0.00000000,0.00000000,
7.892994,0.0128,-1.0021,-0.1207,-0.3292,-0.1604,-0.4195,0.3443,0.3112,-0.3548,-4.6335,40.3680,-6.4737,139.8750,104.2344,-7.7344,0.00000000,0.00000000,0.00000000,
7.896341,0.0128,-1.0021,-0.1207,-0.3292,-0.1604,-0.4195,0.3443,0.3112,-0.3548,-5.9641,38.4440,-7.5133,139.8750,104.2344,-7.7344,0.00000000,0.00000000,0.00000000,
7.899498,0.0128,-1.0021,-0.1207,-0.3292,-0.1604,-0.4195,0.3443,0.3112,-0.3548,-5.9641,38.4440,-7.5133,142.2031,102.6406,-6.1250,0.00000000,0.00000000,0.00000000,
7.907367,0.0159,-1.0997,-0.1105,-0.3292,-0.1604,-0.4195,0.3443,0.3112,-0.3548,-5.9641,38.4440,-7.5133,142.2031,102.6406,-6.1250,0.00000000,0.00000000,0.00000000,
7.920465,0.0159,-1.0997,-0.1105,-0.3292,-0.1604,-0.4195,0.5109,0.4295,-0.6328,-5.9641,38.4440,-7.5133,142.2031,102.6406,-6.1250,0.00000000,0.00000000,0.00000000,
7.938460,0.0159,-1.0997,-0.1105,-0.3292,-0.1604,-0.4195,0.5109,0.4295,-0.6328,-5.9641,38.4440,-7.5133,144.5469,101.4688,-4.4688,0.00000000,0.00000000,0.00000000,
7.947429,0.0159,-1.0997,-0.1105,-0.5176,-0.8737,-0.8053,0.5109,0.4295,-0.6328,-5.9641,38.4440,-7.5133,144.5469,101.4688,-4.4688,0.00000000,0.00000000,0.00000000,
7.950337,0.0159,-1.0997,-0.1105,-0.5176,-0.8737,-0.8053,0.5109,0.4295,-0.6328,-8.2749,37.8447,-9.7390,144.5469,101.4688,-4.4688,0.00000000,0.00000000,0.00000000,
7.979078,-0.0273,-1.3286,-0.0122,-0.5176,-0.8737,-0.8053,0.5109,0.4295,-0.6328,-8.2749,37.8447,-9.7390,144.5469,101.4688,-4.4688,0.00000000,0.00000000,0.00000000,
7.985193,-0.0273,-1.3286,-0.0122,-0.5176,-0.8737,-0.8053,0.5109,0.4295,-0.6328,-8.2749,37.8447,-9.7390,147.0469,100.3594,-2.7031,0.00000000,0.00000000,0.00000000,
8.001651,-0.0273,-1.3286,-0.0122,-0.5176,-0.8737,-0.8053,1.0719,0.4394,-1.2606,-8.2749,37.8447,-9.7390,147.0469,100.3594,-2.7031,0.00000000,0.00000000,0.00000000,
8.009490,-0.0273,-1.3286,-0.0122,-1.1989,-2.2764,0.0984,1.0719,0.4394,-1.2606,-8.2749,37.8447,-9.7390,147.0469,100.3594,-2.7031,0.00000000,0.00000000,0.00000000,
8.013727,-0.0273,-1.3286,-0.0122,-1.9141,-2.3717,-0.5169,1.0719,0.4394,-1.2606,-8.2749,37.8447,-9.7390,147.0469,100.3594,-2.7031,0.00000000,0.00000000,0.00000000,
8.025698,-0.0273,-1.3286,-0.0122,-1.9141,-2.3717,-0.5169,1.0719,0.4394,-1.2606,-8.2749,37.8447,-9.7390,149.2812,99.5312,-1.1562,0.00000000,0.00000000,0.00000000,
8.031922,-0.0273,-1.3286,-0.0122,-1.9141,-2.3717,-0.5169,1.0719,0.4394,-1.2606,-13.4342,34.5308,-14.4058,149.2812,99.5312,-1.1562,0.00000000,0.00000000,0.00000000,
8.049149,-0.0273,-1.3286,-0.0122,-1.9141,-2.3717,-0.5169,1.8548,0.1430,-2.6617,-13.4342,34.5308,-14.4058,149.2812,99.5312,-1.1562,0.00000000,0.00000000,0.00000000,
8.052103,-0.3813,-1.9576,-0.2070,-1.9141,-2.3717,-0.5169,1.8548,0.1430,-2.6617,-13.4342,34.5308,-14.4058,149.2812,99.5312,-1.1562,0.00000000,0.00000000,0.00000000,
8.064667,-0.3813,-1.9576,-0.2070,-1.9141,-2.3717,-0.5169,1.8548,0.1430,-2.6617,-13.4342,34.5308,-14.4058,151.2500,98.8594,0.1562,0.00000000,0.00000000,0.00000000,
8.067060,-0.3813,-1.9576,-0.2070,-4.2763,-7.3311,-2.5101,1.8548,0.1430,-2.6617,-13.4342,34.5308,-14.4058,151.2500,98.8594,0.1562,0.00000000,0.00000000,0.00000000,
8.090579,-0.3813,-1.9576,-0.2070,-4.2763,-7.3311,-2.5101,1.8548,0.1430,-2.6617,-22.2233,27.8179,-20.1069,151.2500,98.8594,0.1562,0.00000000,0.00000000,0.00000000,
8.106291,-0.3813,-1.9576,-0.2070,-4.2763,-7.3311,-2.5101,1.8548,0.1430,-2.6617,-22.2233,27.8179,-20.1069,152.3125,98.1250,0.6406,0.00000000,0.00000000,0.00000000,
8.110293,-0.2145,-2.2743,-0.6246,-4.2763,-7.3311,-2.5101,1.8548,0.1430,-2.6617,-22.2233,27.8179,-20.1069,152.3125,98.1250,0.6406,0.00000000,0.00000000,0.00000000,
8.121941,-0.2145,-2.2743,-0.6246,-4.2763,-7.3311,-2.5101,2.0023,0.0075,-5.5874,-22.2233,27.8179,-20.1069,152.3125,98.1250,0.6406,0.00000000,0.00000000,0.00000000,
8.129339,-0.2145,-2.2743,-0.6246,-9.1064,-11.9115,-5.0892,2.0023,0.0075,-5.5874,-22.2233,27.8179,-20.1069,152.3125,98.1250,0.6406,0.00000000,0.00000000,0.00000000,
8.132276,-0.2145,-2.2743,-0.6246,-10.9746,-13.3840,-5.7399,2.0023,0.0075,-5.5874,-22.2233,27.8179,-20.1069,152.3125,98.1250,0.6406,0.00000000,0.00000000,0.00000000,
