time,ax,ay,az (m/s^2),aT (m/s^2)
0.000867,0.4737,0.2840,-0.6293,0.837
0.003821,0.5106,0.2807,-0.6764,0.893
0.009448,0.4796,0.2617,-0.5387,0.767
0.013870,0.4457,0.2245,-0.4412,0.666
0.018372,0.4518,0.2240,-0.3051,0.589
0.023062,0.4191,0.1481,-0.1997,0.487
0.029438,0.3097,-0.0145,-0.1078,0.328
0.032727,0.2522,-0.1825,-0.0196,0.312
0.037837,0.1106,-0.2990,0.1005,0.334
0.042268,-0.0536,-0.4267,0.2294,0.487
0.047427,-0.1720,-0.5538,0.3006,0.653
0.052990,-0.3268,-0.6205,0.2607,0.748
0.057167,-0.5157,-0.6945,0.1938,0.886
0.065311,-0.5681,-0.7250,0.2161,0.946
0.067154,-0.7504,-0.5110,1.0280,1.371
0.071370,-0.2760,-0.6351,0.5218,0.867
0.076198,-0.2094,-0.5691,0.1138,0.617
0.081168,-0.2474,-0.3995,-0.1970,0.510
0.086655,-0.1551,-0.1705,-0.3553,0.423
0.091527,0.0106,0.0673,-0.1633,0.177
0.095823,0.2305,0.2165,0.0553,0.321
0.100805,0.4090,0.2499,0.1008,0.490
0.105244,0.4016,0.2260,0.0958,0.471
0.111132,0.2785,0.2006,-0.0023,0.343
0.114855,0.1981,0.1740,-0.0172,0.264
0.120486,0.2027,0.1060,0.0265,0.230
0.125470,0.3013,0.0847,-0.0165,0.313
0.130981,0.3607,0.0813,-0.0532,0.374
0.134746,0.3647,0.1363,0.0278,0.390
0.139195,0.4943,0.1830,-0.0405,0.529
0.143849,0.5700,0.2388,-0.2138,0.654
0.150148,0.6906,0.3293,-0.5465,0.940
0.155417,0.4122,0.4537,-0.1968,0.644
0.159074,0.4476,0.5164,0.0629,0.686
0.165126,0.6066,0.3870,0.1056,0.727
0.169119,0.5152,0.2759,0.1750,0.610
0.172786,0.4599,0.1405,0.1907,0.517
0.178049,0.2119,-0.0404,0.0441,0.220
0.182759,0.1540,-0.1554,-0.0229,0.220
0.187476,0.2378,-0.2549,-0.1599,0.384
0.192813,-0.2140,-0.7129,-0.1704,0.764
0.197999,-0.5071,-0.6114,0.5450,0.963
0.202525,0.2624,-0.0673,0.2618,0.377
0.207151,1.1039,0.3197,-0.9450,1.488
0.214566,0.3864,0.2718,-0.9597,1.070
0.216926,0.1519,0.2890,-0.5784,0.664
0.221792,0.0494,0.2795,-0.4160,0.504
0.225899,0.7302,0.9690,-0.3358,1.259
0.232081,0.3200,0.5913,0.2345,0.712
0.236188,-0.4546,0.0106,0.3208,0.556
0.240842,-1.0000,-0.6726,0.5349,1.319
0.248285,-0.8429,-0.9416,0.1999,1.279
0.250672,-0.5777,-0.8682,-0.0935,1.047
0.255307,-0.3508,-0.5808,-0.0708,0.682
0.261900,-0.0891,-0.1691,0.0579,0.200
0.265928,0.2039,0.0461,-0.0046,0.209
0.270419,0.3356,0.0763,-0.2830,0.446
0.274600,0.0455,-0.0388,-0.2941,0.300
0.280469,-0.2157,-0.1750,-0.2279,0.359
0.284759,-0.1297,-0.2796,-0.2094,0.373
0.290368,0.4594,-0.0824,-0.9431,1.052
0.294873,0.1281,0.0882,-0.6968,0.714
0.299169,-0.2441,0.2033,-0.4427,0.545
0.304539,-0.2753,0.2251,-0.2804,0.453
0.309592,-0.0712,0.2017,-0.3083,0.375
0.314057,-0.2054,0.0957,-0.2950,0.372
0.318571,-0.4429,-0.0382,-0.0838,0.452
0.323698,-0.2544,-0.0394,0.0540,0.263
0.327695,0.4044,-0.0101,0.0302,0.406
0.333055,0.2124,-0.0341,0.1624,0.270
0.338951,0.1427,-0.0778,0.4164,0.447
0.342985,0.2413,-0.0377,0.3064,0.392
0.350076,0.1325,-0.0810,0.1914,0.246
0.355544,0.0334,-0.2243,0.1029,0.249
0.357215,0.1335,-0.1408,0.0335,0.197
0.362190,0.2357,-0.2206,0.3054,0.444
0.366917,0.6556,0.1782,0.3371,0.758
0.371975,0.8465,0.4505,0.0671,0.961
0.377275,0.2484,0.3822,0.0341,0.457
0.380943,-0.2085,0.1598,0.1403,0.298
0.386533,-0.4072,0.0227,0.0745,0.415
0.391824,-0.3445,0.0569,0.1627,0.385
0.396839,0.0992,-0.0031,-0.1001,0.141
0.401073,0.1060,-0.0589,-0.0322,0.125
0.406472,0.1513,-0.1265,-0.1198,0.231
0.409744,-0.1376,-0.4331,-0.1860,0.491
0.414868,-0.7104,-0.4384,0.0500,0.836
0.420289,0.5773,0.0838,-0.6052,0.841
0.425115,0.4641,0.6334,-0.1607,0.802
0.432753,0.3262,0.7059,0.3301,0.845
0.434684,0.8439,0.3008,0.3669,0.968
0.438905,0.4472,0.1065,0.1910,0.498
0.444412,0.1629,-0.0604,0.0393,0.178
0.449754,-0.0106,-0.2989,-0.0888,0.312
0.453870,-0.0033,-0.3144,-0.3131,0.444
0.458210,-0.2073,-0.5572,-0.2604,0.649
0.463527,-0.3733,-0.9785,-0.0725,1.050
0.468831,-0.0180,-0.9003,-0.4073,0.988
0.474336,-0.2966,-0.7086,-0.4297,0.880
0.478058,-0.5462,-0.6100,-0.3048,0.874
0.482704,-0.6966,-0.4106,-0.3512,0.882
0.487249,-0.9461,-0.9293,0.1838,1.339
0.493496,-0.1178,-0.5797,0.3369,0.681
0.497650,0.2813,-0.3032,0.6152,0.741
0.503001,0.4100,0.1506,0.7874,0.900
0.508033,0.5526,0.4232,1.0484,1.258
0.511578,1.4690,0.5753,1.3313,2.064
0.516564,0.6144,0.4786,0.8661,1.165
0.521970,-0.4017,0.4388,1.6169,1.723
0.526722,0.0351,0.7558,2.0733,2.207
0.531561,0.5040,1.0087,0.8979,1.441
0.536110,1.0739,0.8130,0.1641,1.357
0.540204,0.9627,0.5463,0.1446,1.116
0.544973,0.4830,0.1292,0.1722,0.529
0.550888,0.2058,-0.1569,-0.2354,0.350
0.555635,0.1178,-0.3075,-0.5527,0.643
0.559717,-0.3625,-0.2655,-0.2441,0.511
0.566530,-0.0352,0.0681,-0.4579,0.464
0.571683,0.0921,0.2645,-0.4355,0.518
0.575407,0.1512,0.3547,-0.3875,0.547
0.579327,0.2040,0.3344,-0.4342,0.585
0.584589,0.1637,0.1377,-0.4037,0.457
0.589704,0.1237,-0.0084,-0.5162,0.531
0.594872,0.0984,-0.0928,-0.5419,0.559
0.599241,0.1290,-0.1727,-0.5503,0.591
0.603234,0.1099,-0.1694,-0.5533,0.589
0.610176,0.0593,-0.2384,-0.5699,0.621
0.612719,-0.1111,-0.4050,-0.6550,0.778
0.619127,-0.3200,-0.6062,-0.8063,1.058
0.622740,-0.3790,-0.8097,-0.9782,1.325
0.628746,-0.3945,-0.9234,-1.2310,1.589
0.632624,-0.1544,-0.9326,-1.7048,1.949
0.637583,-0.2179,-0.7658,-1.8080,1.976
0.642723,-0.5976,-0.5600,-1.7169,1.902
0.647775,0.0475,-0.2225,-1.7229,1.738
0.652210,0.1874,-0.2738,-1.8446,1.874
0.656640,0.4010,-0.3294,-1.8178,1.890
0.662116,0.5941,-0.0190,-2.4072,2.480
0.668685,0.0495,-0.1949,-2.0497,2.060
0.675840,0.5732,-0.1044,-3.1737,3.227
0.676093,1.3510,0.0290,-3.7930,4.027
0.681044,0.9191,-0.2548,-3.5785,3.703
0.685923,0.8764,-0.6895,-3.2470,3.433
0.690569,1.4233,-1.0061,-2.9338,3.412
0.695341,1.8370,-1.3618,-3.0181,3.787
0.701217,2.0646,-1.7280,-3.2523,4.222
0.705689,2.0805,-1.9089,-3.3454,4.378
0.712323,1.9474,-1.9675,-3.3112,4.316
0.714868,1.8501,-1.6798,-2.8786,3.812
0.720369,1.6489,-1.2675,-2.4725,3.231
0.725393,1.6403,-0.7963,-2.4027,3.016
0.729365,1.3663,-0.7927,-1.4827,2.166
0.734188,1.1143,-1.0160,-1.2116,1.934
0.738701,0.8373,-1.4539,-1.1576,2.038
0.744530,0.5380,-2.1368,-1.2696,2.543
0.752359,0.0574,-3.4275,-1.6917,3.823
0.753321,-0.3332,-4.1508,-1.9304,4.590
0.760176,-0.6686,-4.3377,-2.3622,4.984
0.763344,-1.1769,-4.2710,-2.8405,5.263
0.768354,-1.8112,-4.3105,-3.0865,5.602
0.773263,-2.5228,-4.5959,-3.3119,6.201
0.777431,-3.2555,-4.9685,-3.5964,6.944
0.782708,-3.7817,-5.2491,-3.7428,7.474
0.787256,-3.9594,-5.4868,-3.6511,7.688
0.792132,-4.0098,-5.8024,-3.6001,7.919
0.798094,-3.9762,-6.1792,-3.4672,8.125
0.803086,-4.0952,-6.5066,-3.3743,8.396
0.807579,-4.3546,-6.7319,-3.4093,8.712
0.811470,-4.6359,-6.9001,-3.2617,8.930
0.817063,-4.5871,-6.8382,-3.1466,8.815
0.825935,-4.5880,-6.6883,-3.0954,8.681
0.826255,-4.4149,-6.4648,-2.6079,8.251
0.831143,-4.0163,-6.0002,-1.5785,7.391
0.835296,-3.4350,-5.4391,-0.2675,6.438
0.840616,-2.7981,-4.9701,1.2459,5.838
0.845277,-2.2248,-4.7086,2.1599,5.638
0.849958,-1.6621,-4.5450,2.7474,5.565
0.854774,-1.2002,-4.4745,3.6598,5.904
0.859623,-0.8809,-4.3799,4.4206,6.285
0.864590,-0.5469,-4.2091,5.1671,6.687
0.869992,-0.3438,-4.0282,5.8090,7.077
0.874275,-0.1275,-3.9885,6.1070,7.295
0.878976,-0.1176,-4.1154,6.5781,7.760
0.883676,-0.0531,-4.1754,6.5028,7.728
0.888871,-0.1099,-4.2386,6.9928,8.178
0.893211,-0.2315,-4.2248,6.9386,8.127
0.898661,-0.4068,-4.2420,6.9130,8.121
0.902876,-0.6187,-4.1524,7.3224,8.441
0.908302,-0.6284,-3.5738,6.9154,7.810
0.913513,-0.4965,-3.0308,6.3292,7.035
0.917818,-0.1834,-2.7281,5.8729,6.478
0.922149,0.3095,-2.6417,5.6303,6.227
0.927392,0.9600,-2.5350,5.3967,6.039
0.933551,1.7324,-2.1833,4.8830,5.622
0.937541,2.5281,-1.6386,4.2195,5.185
0.942405,3.3270,-1.0628,3.9212,5.251
0.946252,3.8476,-0.3137,3.7420,5.376
0.951590,4.2453,0.2904,3.7274,5.657
0.956707,4.5517,0.8938,3.3438,5.718
0.961072,4.9148,1.3955,2.6577,5.759
0.967307,5.3569,1.8548,1.9750,6.003
0.971226,5.7358,2.2191,1.7769,6.402
0.976199,6.0897,2.5169,1.8228,6.837
0.980302,6.2859,2.6568,2.1321,7.150
0.985371,6.3608,2.7453,2.8230,7.481
0.989941,6.3191,2.9920,3.0496,7.628
0.995231,6.2391,3.1619,3.0943,7.648
1.000156,6.3217,3.3210,2.9482,7.726
1.004478,6.6586,3.6629,3.0532,8.190
1.009824,7.1246,4.2022,2.8142,8.737
1.014178,7.4119,4.5038,2.2870,8.969
1.019046,7.4035,4.5206,1.8355,8.867
1.023902,7.2557,4.4995,1.4945,8.667
1.029631,7.0147,4.5536,1.2177,8.451
1.034296,6.7081,4.5333,0.8519,8.141
1.038254,6.3321,4.4558,0.2551,7.747
1.043209,5.8406,4.3690,-0.5287,7.313
1.049959,5.2471,4.2641,-1.1780,6.863
1.053120,4.9304,4.4175,-1.8646,6.877
1.057823,4.2859,4.6006,-2.5047,6.768
1.062435,3.9323,4.8979,-3.0161,6.968
1.067367,3.4829,5.1229,-3.9749,7.360
1.072474,2.9136,5.0432,-4.2560,7.214
1.076846,2.3711,4.8871,-4.3459,6.957
1.082262,2.1125,4.6639,-4.9011,7.088
1.086719,2.0267,4.3788,-5.2425,7.125
1.092004,2.0000,3.9406,-5.1682,6.800
1.097547,2.0810,3.5089,-4.6715,6.202
1.101200,2.1445,2.9990,-3.4555,5.053
1.105936,2.2368,2.4048,-2.1004,3.898
1.111694,2.8070,1.9364,-0.7217,3.486
1.116281,3.5188,1.6928,1.2422,4.098
1.120737,4.0187,1.4199,3.0780,5.257
1.126385,4.2619,1.2090,4.0909,6.030
1.130763,4.4152,1.0574,4.4964,6.390
1.135710,4.6004,1.0304,4.2946,6.377
1.142116,5.0162,1.2347,3.2292,6.092
1.147603,5.4942,1.7279,2.1735,6.156
1.157186,7.2319,1.9624,-6.3010,9.790
1.168938,8.5888,0.3066,-40.1124,41.023
1.176992,6.5000,5.3140,-0.9473,8.449
1.189804,2.4810,3.5476,3.2404,5.408
1.191157,0.9398,0.7352,-1.8940,2.238
1.191719,1.9199,-0.8549,-0.5870,2.182
1.194681,2.4002,-1.5393,-0.9737,3.013
1.195435,2.1052,-0.9774,-1.6370,2.840
1.224181,1.6940,-0.4369,-2.2535,2.853
1.229548,2.3155,-0.1661,-2.4268,3.358
1.230545,3.1091,0.0383,-2.2227,3.822
1.231235,3.5847,0.2122,-1.7529,3.996
1.231714,4.2290,0.4903,-1.5479,4.530
1.232198,4.9091,0.6972,-1.4825,5.175
1.232967,4.4151,0.2486,-1.1448,4.568
1.233400,2.9356,-0.8165,-0.7636,3.141
1.234087,1.6004,-3.8334,0.3257,4.167
1.234711,6.7154,6.3602,0.4311,9.259
1.238191,1.9390,-3.8793,-3.5984,5.635
1.245261,2.1182,-0.2660,-0.2420,2.149
1.245998,-0.4104,-1.5521,0.1201,1.610
1.251044,0.0797,-0.6430,-0.7383,0.982
1.261333,2.3111,1.7246,-0.8100,2.995
1.261825,4.3319,3.7621,-1.0001,5.824
1.269502,4.9464,3.5974,-0.8460,6.175
1.270153,3.6245,1.6677,-0.6396,4.041
1.275296,1.8067,0.3065,-0.4510,1.887
1.279913,0.6426,-0.3653,0.3921,0.837
1.284775,-0.5536,-0.2090,1.1840,1.324
1.289716,-0.8811,-0.0962,1.2291,1.515
1.294347,-1.0310,0.4367,1.2671,1.691
1.299164,-1.3310,0.8695,1.3500,2.086
1.304505,-1.6978,1.0849,1.2032,2.347
1.309178,-1.8616,0.9826,0.6108,2.192
1.314780,-1.6205,1.0953,0.9353,2.168
1.318871,-0.8677,0.5113,0.5641,1.154
1.323591,-1.3137,0.3133,0.5823,1.471
1.328505,-3.3299,0.4031,0.4691,3.387
1.333161,-4.7467,0.3740,0.1784,4.765
1.338061,-5.8557,-0.2540,-0.3390,5.871
1.342744,-6.4036,-0.8454,-0.3598,6.469
1.347437,-5.4041,-1.6651,0.0091,5.655
1.352183,-4.5788,-2.2039,0.6196,5.119
1.357667,-4.0885,-2.1431,0.9663,4.716
1.362256,-3.4471,-1.5062,1.3548,3.998
1.366704,-2.7173,-0.7479,1.5675,3.225
1.371629,-2.0627,-0.3409,1.7244,2.710
1.377030,-1.4798,-0.4334,1.8081,2.376
1.381829,-0.8951,-0.7020,1.5451,1.919
1.386641,-0.4120,-0.4901,1.3480,1.492
1.391260,-1.0731,1.4563,1.8166,2.564
1.395938,-1.1280,2.4737,0.9993,2.897
1.401409,0.7091,2.8523,0.9089,3.076
1.405787,2.2527,3.1603,1.1378,4.044
1.410351,3.1844,4.0505,1.0160,5.252
1.415587,2.9888,3.2525,0.2362,4.424
1.420193,-1.2592,-0.3420,-0.5116,1.402
1.424921,-3.2806,-1.3031,-0.9475,3.655
1.429645,-2.6764,-5.2625,-3.5328,6.880
1.434697,-1.7197,-2.2791,1.5817,3.264
1.439501,-1.4991,-0.5466,3.8597,4.177
1.444274,-1.7831,-1.1664,2.4689,3.261
1.449429,-1.7338,-2.3849,0.3944,2.975
1.453983,-1.1534,-2.6033,0.0803,2.848
1.458804,-0.2352,-1.8328,0.2935,1.871
1.463852,1.3770,-1.7544,0.1034,2.233
1.468289,4.4580,-4.0985,1.0163,6.140
1.473994,3.4590,-4.0329,3.5011,6.363
1.478779,1.4354,-1.9555,2.0445,3.172
1.483361,-0.2041,0.3369,1.4277,1.481
1.487744,-0.5340,1.5092,0.9151,1.844
1.493084,-0.9115,1.5689,0.4725,1.875
1.497669,-0.0321,1.0285,0.2786,1.066
1.502413,0.8334,0.3497,0.1952,0.925
1.507208,0.7872,-0.6238,-0.0365,1.005
1.511989,-0.3668,-2.8649,-0.5919,2.948
1.516980,1.3056,-1.7811,-0.5712,2.281
1.521711,2.3030,0.5090,0.3622,2.386
1.526407,0.1556,1.4247,0.7800,1.632
1.531300,-0.7723,2.5382,0.6054,2.721
1.536484,-0.3996,2.2858,0.3741,2.350
1.540964,-0.2007,-0.8191,-0.2905,0.892
1.547340,0.5579,-1.5049,-0.1752,1.615
1.551192,0.6117,-0.1858,-0.0067,0.639
1.555941,0.4416,0.2666,-0.4747,0.701
1.560418,0.6704,0.3777,-1.3178,1.526
1.565366,0.8033,0.4570,-1.7064,1.941
1.570124,0.7841,0.0806,-1.4166,1.621
1.575005,0.3139,-0.1448,-1.3989,1.441
1.579863,-1.1925,0.1944,-1.7602,2.135
1.585112,0.4485,-0.0707,-2.2347,2.280
1.589818,1.9082,-0.3107,-1.5166,2.457
1.594613,2.5503,-0.0548,-0.8989,2.705
1.599245,1.1099,-0.4191,-0.2198,1.207
1.612338,-0.1831,-0.5225,0.0901,0.561
1.612895,0.5491,-0.2933,0.4115,0.746
1.615243,2.2842,0.1400,1.1798,2.575
1.618837,3.5267,0.6036,1.7588,3.987
1.624958,3.7283,0.8804,1.7266,4.202
1.627823,4.3103,1.4787,0.7666,4.621
1.633952,4.5438,1.4177,0.5911,4.796
1.637890,3.1986,1.2727,1.0628,3.603
1.642645,2.2901,1.2663,0.9323,2.778
1.648793,2.2663,0.9408,0.3338,2.476
1.652465,3.0671,1.9437,0.1020,3.633
1.657851,2.7070,1.9522,-0.0857,3.339
1.662231,3.8190,2.0491,-0.8102,4.409
1.666880,6.1610,3.7266,-0.2750,7.206
1.671704,11.8344,7.5874,1.4177,14.129
1.676577,21.6963,15.7709,8.4995,28.137
1.681469,23.4965,22.2714,28.1462,42.899
1.686191,17.7021,11.3646,-0.9024,21.055
1.690985,14.2811,8.6181,-8.4207,18.685
1.696047,10.8103,7.2885,-1.9261,13.179
1.700647,8.4481,5.6936,1.9085,10.365
1.705694,5.5934,2.6287,-0.1167,6.181
1.712632,1.6843,-2.4110,-4.2959,5.206
1.717044,-2.5044,-7.6055,-5.1008,9.494
1.719979,-6.8887,-11.2304,-5.5260,14.287
1.727399,-12.8815,-12.5583,-4.8088,18.622
1.730138,-19.3826,-13.8058,-4.9208,24.300
1.735372,-20.2181,-18.2826,-7.5650,28.289
1.739900,-17.7849,-23.4163,-8.8112,30.696
1.744139,-19.2071,-24.6539,-5.6394,31.757
1.751532,-23.3913,-23.7279,-0.4390,33.322
1.754343,-25.8231,-20.6976,2.2300,33.169
1.760651,-22.1961,-15.2215,1.2356,26.942
1.771478,-15.0234,-9.1200,-1.5785,17.646
1.772041,-10.2870,-5.3622,-4.6473,12.497
1.774063,-8.6842,-4.2532,-7.4258,12.192
1.777935,-8.0659,-3.8400,-9.4221,12.984
1.782741,-7.8030,-3.6019,-8.5265,12.106
1.787515,-7.4352,-3.5065,-6.6182,10.554
1.792245,-6.6245,-3.5159,-4.3140,8.652
1.797646,-5.2345,-3.3907,-1.5855,6.435
1.802474,-3.4818,-1.6824,1.6019,4.186
1.807715,-4.3901,-0.9108,3.4122,5.634
1.812068,-3.6976,-1.0960,3.7065,5.349
1.817115,3.7207,-0.5671,0.8945,3.869
1.821562,4.9311,-1.3460,-5.6075,7.588
1.826808,-3.6492,-2.9738,-6.3152,7.877
1.831932,-10.9577,-4.1394,-3.0019,12.092
1.837002,-6.0743,-2.6307,0.3593,6.629
1.841108,2.9284,-2.2664,4.3339,5.700
1.847835,19.3417,1.3891,19.2855,27.349
1.853746,60.5192,17.5770,51.9577,81.677
1.856008,41.5316,11.1334,5.4280,43.339
1.860179,12.7144,3.6640,-18.8118,22.999
1.865055,0.8964,1.7256,-1.7546,2.619
1.870054,1.0973,1.9249,-1.0497,2.452
1.875064,2.1053,2.4976,-3.6664,4.911
1.879567,1.9749,1.2607,-2.4312,3.376
1.884431,4.3921,-1.8720,0.4279,4.794
1.889127,4.9783,-3.9996,0.1614,6.388
1.893939,3.4198,-2.7126,0.7379,4.427
1.899181,1.3463,-0.1344,0.6957,1.521
1.904938,0.4250,0.9390,-1.2879,1.650
1.908486,-0.0779,1.0660,-1.4619,1.811
1.917363,-1.9464,1.5492,-0.1956,2.495
1.918841,-1.5384,0.1051,-0.0424,1.543
1.924187,-1.1232,-1.0619,-0.1444,1.552
1.928007,-1.6878,-0.8331,0.7505,2.026
1.932789,-2.0426,0.6848,-0.3198,2.178
1.938452,-0.1846,1.2914,-0.0348,1.305
1.942496,0.1710,1.2839,-0.1329,1.302
1.947291,0.1287,2.1253,0.5969,2.211
1.951600,0.8465,2.1099,0.1154,2.276
1.956951,1.5756,1.2888,-0.1158,2.039
1.961549,1.5274,0.6443,0.4595,1.720
1.966247,1.3117,0.3868,0.9679,1.675
1.971160,1.0490,0.2372,0.9362,1.426
1.976802,0.7510,-0.2196,0.8598,1.163
1.980988,0.6846,0.2829,0.8475,1.126
1.986177,-0.0465,0.8563,0.4315,0.960
1.991038,-0.3348,1.1070,0.0476,1.158
1.996581,-0.0091,-0.1856,-0.4176,0.457
2.000396,0.4821,-0.8599,0.5976,1.153
2.005117,-0.1355,-0.5337,0.3501,0.653
2.010154,-0.3349,-0.3787,0.5303,0.733
2.014896,-0.0395,0.4380,-0.0228,0.440
2.020262,-0.0426,0.8799,-0.3463,0.947
2.025695,0.9222,1.4398,-0.7176,1.854
2.029793,0.8606,-0.5125,0.4186,1.086
2.034067,0.3938,-1.3912,1.0770,1.803
2.039090,0.4489,-1.0833,0.6837,1.357
2.043968,0.0369,-1.0885,0.8864,1.404
2.048863,0.5039,0.4715,0.7568,1.024
2.055123,-0.4320,0.0520,0.4267,0.609
2.059359,-1.9132,-1.5902,-1.0959,2.718
2.063481,0.2897,-1.8076,-0.0733,1.832
2.068177,1.2080,-0.2135,-0.2687,1.256
2.073240,0.8983,1.1970,0.0710,1.498
2.078654,2.2568,1.2555,0.6626,2.666
2.082882,2.5677,1.0863,1.8871,3.367
2.087820,-2.3715,-2.5062,-0.0218,3.450
2.093116,0.2285,-1.6587,1.6894,2.379
2.097170,2.3326,-2.2016,2.2578,3.922
2.101740,3.6806,-0.0634,1.0720,3.834
2.106510,4.1287,1.5036,-0.0101,4.394
2.111242,0.6762,0.5124,0.3038,0.901
2.117171,-1.2102,-0.9534,-0.7930,1.733
2.120910,-2.3689,-1.1692,-0.8369,2.771
2.126585,-7.0774,-2.9681,0.0991,7.675
2.130786,-7.1157,-2.8254,-1.1345,7.740
2.135847,-7.2012,-1.8814,-1.4336,7.580
2.140437,-6.8285,-1.0260,-1.8255,7.142
2.145268,-4.2257,0.3871,-1.1196,4.389
2.150141,-2.9051,1.7083,-0.9374,3.498
2.157299,-4.5586,1.3171,-1.8593,5.096
2.160467,-4.0925,0.9435,-2.2132,4.747
2.166271,-1.5046,1.3649,-0.7644,2.171
2.171080,1.8233,1.8853,0.2802,2.638
2.177390,3.2263,2.5686,0.3943,4.143
2.180617,3.5558,2.8486,-0.2482,4.563
2.184326,3.3347,2.8579,-1.0785,4.522
2.191233,1.9769,2.4557,-1.2050,3.375
2.194402,1.6585,1.2346,-1.5211,2.567
2.202788,2.7566,0.6379,-0.6547,2.904
2.204200,2.6939,0.2463,0.2106,2.713
2.208135,2.2034,0.0972,0.0584,2.206
2.213057,1.8900,0.4707,0.7783,2.097
2.217994,3.2050,1.0671,1.3054,3.621
2.227734,2.6933,1.0172,-0.2764,2.892
2.228510,-0.3830,0.5524,-0.9627,1.174
2.232512,3.8372,-0.1316,1.7627,4.225
2.237147,2.4624,-0.8792,-2.1576,3.390
2.241871,-1.4287,-1.0002,-1.2644,2.154
2.246756,-0.5611,-0.5948,-0.5803,1.003
2.251560,-1.4791,-0.0843,-0.7705,1.670
2.256908,-0.4107,-0.1033,-0.4010,0.583
2.261968,0.6310,-0.0401,0.5788,0.857
2.266618,0.8742,0.0195,0.4411,0.979
2.271393,1.4009,0.1706,0.4305,1.475
2.276364,1.7200,-0.6291,0.5819,1.922
2.280823,1.7449,-1.8831,0.8539,2.706
2.285748,1.1753,-1.6891,0.8576,2.229
2.291068,0.1385,-1.2476,0.7124,1.443
2.296175,0.7104,-0.3153,-0.3395,0.848
2.301085,-0.0376,-0.1706,-0.4930,0.523
2.305319,-0.5554,-0.2171,-0.4456,0.744
2.311359,0.2036,-0.1525,0.1158,0.279
2.315016,0.1931,-0.6500,1.3887,1.545
2.319887,-0.2994,1.3923,1.0343,1.760
2.324911,0.3526,1.2970,1.2553,1.839
2.329411,0.7150,0.8835,1.5503,1.922
2.334181,1.7935,-0.2633,1.6318,2.439
2.339048,0.1668,0.4413,1.6626,1.728
2.343775,-1.2229,0.8501,0.5654,1.593
2.348792,1.8458,-1.6195,1.4806,2.867
2.354443,-0.4897,-1.1346,-0.1054,1.240
2.359919,-0.7970,-1.6873,-0.8818,2.064
2.363429,-1.5700,0.7328,-2.0806,2.708
2.368364,-1.3200,-0.4816,-0.9112,1.675
2.373045,0.8179,-1.6542,0.0795,1.847
2.377899,-0.6121,-0.7099,-0.0734,0.940
2.382397,-0.2606,-0.6560,0.1748,0.727
2.387450,-0.0086,-0.5390,0.2207,0.582
2.392491,0.2133,-0.2749,0.4306,0.554
2.397050,0.3313,-0.0364,0.7942,0.861
2.401782,0.1921,0.2431,0.8388,0.894
2.408694,-0.0375,0.3210,0.6406,0.718
2.411522,-0.3228,0.2116,0.1908,0.431
2.421459,-0.2968,0.3362,-0.3100,0.545
2.423434,-0.5156,0.0816,-0.3346,0.620
2.428233,2.1546,0.1456,-1.6941,2.745
2.430838,-0.3963,0.5988,-0.4914,0.870
2.436039,0.0668,-0.0478,0.1915,0.208
2.441450,-0.0711,0.2803,-0.5689,0.638
2.445787,-1.1458,0.0489,-0.1642,1.159
2.450151,0.6420,-0.1726,-0.7792,1.024
2.454839,0.5843,-0.4112,0.0106,0.715
2.459893,1.0814,-0.9659,0.5496,1.551
2.464907,1.2526,-0.7984,0.8760,1.725
2.469457,1.3261,-0.7157,1.0536,1.839
2.474850,1.3198,0.3209,0.9184,1.640
2.479255,1.2860,-0.8193,1.1343,1.900
2.483994,-0.3594,0.0072,0.2210,0.422
2.489058,1.1307,-0.6922,0.3838,1.380
2.494415,0.4292,-0.8260,0.3574,0.997
2.499349,0.0745,-0.2265,0.2286,0.330
2.503978,-0.2844,-0.4095,0.2597,0.562
2.508442,-2.1428,0.1595,-0.8084,2.296
2.513196,-2.2013,0.1136,-0.8381,2.358
2.518135,-1.6578,-0.1091,-0.5577,1.753
2.526712,-0.8113,0.2666,0.0177,0.854
2.532279,0.0110,-0.1269,0.7669,0.777
2.533445,-4.9089,-3.3663,3.8604,7.094
2.545449,5.6545,0.5028,0.0807,5.677
2.546978,-0.6957,-0.7992,0.2984,1.101
2.547478,-4.8187,-1.5735,1.7866,5.375
2.551614,1.9259,-0.9540,1.1893,2.456
2.557753,-5.0600,-1.0348,1.2868,5.323
2.561503,11.5541,2.3761,-1.4242,11.882
2.566646,0.0241,1.5088,-1.3356,2.015
2.576749,-3.7611,-1.2127,0.9164,4.057
2.577691,-2.8464,-0.5632,-0.8924,3.036
2.581974,-2.3164,0.2942,-2.5048,3.424
2.585447,-1.7419,-0.6086,-2.1698,2.848
2.592453,-4.3335,-1.1247,-1.2937,4.660
2.595588,-6.3622,-1.4342,-0.3381,6.531
2.600084,-0.8100,-0.0660,-0.4837,0.946
2.604449,-0.5651,0.6126,-1.3689,1.603
2.609565,0.6753,0.8944,-1.4845,1.860
2.615124,-1.8560,-0.0931,-1.0617,2.140
2.619027,-4.9103,-2.2588,-0.5076,5.429
2.624442,-5.0728,-3.0934,-0.2225,5.946
2.628726,-2.4622,-2.1246,0.5675,3.301
2.634182,0.7438,0.0855,1.1744,1.393
2.640769,1.6306,2.1657,1.5429,3.119
2.643399,-0.3844,4.7837,-8.3048,9.592
2.648356,2.5980,1.9552,10.2407,10.744
2.653419,14.6533,5.8516,0.5819,15.789
2.659829,13.1848,6.6958,1.7615,14.892
2.662764,12.7890,5.0879,-1.9614,13.903
2.668804,-0.2908,1.2495,-2.7526,3.037
2.672224,-2.7494,-0.8808,-3.1634,4.283
2.677394,-1.6250,-0.6487,-1.8071,2.515
2.682234,-2.4338,0.2538,-2.5797,3.556
2.687009,-2.8582,-0.2067,-2.2571,3.648
2.691707,-0.4106,-0.8797,-1.1096,1.474
2.696608,-1.0061,-1.7432,-0.2488,2.028
2.701238,-0.5609,-1.8846,0.7969,2.122
2.706030,-0.1577,-1.8277,0.8277,2.013
2.712010,0.5716,-1.6691,0.6787,1.890
2.716631,0.6876,-0.9966,-0.3262,1.254
2.720767,0.9641,-0.0774,0.0394,0.968
2.725421,0.8083,-0.2091,0.4865,0.966
2.730799,0.6061,0.1271,0.3640,0.718
2.735434,0.1953,0.7468,0.0888,0.777
2.740515,-1.2606,0.7355,-0.5212,1.550
2.745049,-0.5563,2.5816,-1.2043,2.902
2.749562,-1.3756,2.4709,-1.7742,3.338
2.755037,-1.1220,1.8341,-1.6674,2.721
2.759520,-1.0829,1.5878,-1.1978,2.265
2.764123,-0.3994,0.5936,-0.7050,1.004
2.769102,0.0802,0.0416,0.6844,0.690
2.774362,0.6055,-0.6495,1.0221,1.354
2.778798,1.9555,-0.7863,1.6965,2.706
2.784154,2.0591,-0.6061,3.3761,4.001
2.788356,2.0505,-1.4943,1.1466,2.784
2.794095,1.7754,-0.2063,1.1966,2.151
2.798238,1.1208,-1.7960,0.4880,2.173
2.802999,1.1794,-1.0863,1.2615,2.040
2.807976,0.1217,-1.4154,0.1297,1.427
2.813224,0.8018,0.4851,1.3711,1.661
2.817453,-0.6219,0.8534,-0.9245,1.403
2.822430,-0.5067,1.7572,-0.1586,1.836
2.828599,-0.3376,-0.5876,-0.4257,0.800
2.832167,-0.4142,-1.0063,0.7587,1.327
2.842328,-0.4912,-0.0510,0.0040,0.494
2.842773,0.5758,0.1689,0.6757,0.904
2.847233,1.5126,-0.9697,1.8922,2.609
2.851364,1.8167,1.0443,1.4743,2.562
2.856110,0.6924,1.9093,6.4052,6.719
2.860892,2.7430,0.4296,2.3271,3.623
2.865866,2.4532,-0.2575,3.5574,4.329
2.870638,1.3348,-1.4822,2.1490,2.932
2.875859,0.0326,-1.1556,0.8352,1.426
2.880307,0.6183,-0.3654,1.3243,1.507
2.885715,-1.4546,-0.2103,0.3477,1.510
2.890284,-1.0003,1.7577,0.0913,2.024
2.896487,-1.3801,2.6164,0.3060,2.974
2.899683,-0.8337,3.8309,-0.2942,3.932
2.904662,-3.9024,0.9628,0.1115,4.021
2.909603,-2.4303,1.6294,1.7667,3.418
2.914483,-1.6889,0.2087,-0.2845,1.725
2.918804,-1.2404,1.1566,-0.6811,1.828
2.925139,0.6520,2.8810,-1.7781,3.448
2.930160,1.0163,3.6308,0.7757,3.849
2.935646,0.1466,-0.2964,-1.0525,1.103
2.938441,-0.2705,-0.9311,-1.2491,1.581
2.943148,-0.5137,1.1835,-0.7399,1.487
2.948599,2.7344,-0.7469,-0.4097,2.864
2.952884,0.2163,-2.3665,-0.7320,2.487
2.958235,-2.0108,0.1168,0.1175,2.018
2.962725,2.0874,-2.3339,0.8495,3.244
2.967605,0.0416,-3.1817,1.0628,3.355
2.972429,0.1292,-2.0769,0.5903,2.163
2.977223,-1.0100,-0.7152,0.2522,1.263
2.982565,0.4652,-2.2735,-0.1289,2.324
2.987334,-0.4421,-2.1697,-0.9959,2.428
2.991734,-0.0775,-1.5220,-1.7967,2.356
2.997033,0.1463,-0.5050,-2.1729,2.236
3.001572,0.6959,0.1358,-2.5124,2.611
3.006808,0.1863,0.6324,-2.6990,2.778
3.011022,0.4049,0.4145,-3.5867,3.633
3.016765,1.5987,6.1503,-3.9701,7.493
3.020778,-1.5094,-0.5750,-3.6224,3.966
3.027081,-0.6436,-3.5653,-1.2050,3.818
3.033176,-1.6007,-1.8539,-0.7862,2.572
3.035850,-0.7128,0.3954,0.0585,0.817
3.040632,-0.4608,-0.0701,0.7602,0.892
3.045344,1.0179,-1.8428,1.4722,2.569
3.050007,1.0070,-2.6256,1.6812,3.276
3.054926,1.3081,-2.0906,1.1187,2.708
3.061384,1.2400,-0.9532,0.6709,1.702
3.066120,1.7336,-0.8543,1.1914,2.270
3.069191,1.2881,-0.8093,1.3760,2.051
3.078908,1.1025,-0.8653,1.6452,2.161
3.080369,1.0325,-0.8001,1.6551,2.108
3.084181,0.8465,-0.8635,1.3475,1.811
3.088817,0.6269,-0.3965,1.0607,1.294
3.093646,-0.0178,-0.4162,0.7740,0.879
3.098199,-0.6729,-1.1546,0.6792,1.499
3.103251,-0.2589,-0.4978,-0.5184,0.764
3.109493,-0.5089,0.5482,-0.7820,1.082
3.112643,-0.5592,-0.2041,-0.9254,1.100
3.117997,-0.4706,-0.9960,-0.4490,1.190
3.122545,-0.1620,-0.7602,0.3036,0.834
3.126723,-0.1099,-0.1899,1.0745,1.097
3.131967,1.0814,-0.4002,1.9660,2.279
3.137332,0.2435,0.7007,1.8466,1.990
3.142115,-1.0634,1.0852,1.9032,2.435
3.147222,-1.4486,0.6672,2.5361,2.996
3.151674,-1.3211,0.9944,2.6765,3.146
3.168953,-2.5211,-1.1479,2.0971,3.474
3.170483,-1.4028,-0.7270,2.6883,3.118
3.171193,-0.1347,1.9176,1.3862,2.370
3.171993,-0.2287,1.1666,0.4060,1.256
3.177744,1.9456,-0.7549,-1.9197,2.836
3.180513,-0.2607,-0.1033,-4.9440,4.952
3.184677,-2.9011,1.0786,-7.0874,7.734
3.189798,-2.2152,1.7850,-5.3054,6.020
3.194841,0.3199,1.0947,-3.4188,3.604
3.199916,1.1519,-0.0117,-2.3563,2.623
3.205352,0.1710,0.1872,-1.7220,1.741
3.209495,0.4139,0.6835,-0.5573,0.974
3.214719,0.5371,1.5307,0.0675,1.624
3.219711,0.3668,1.1959,0.3954,1.312
3.225000,0.2406,1.0268,0.5531,1.191
3.228956,-0.1419,0.2811,0.5521,0.636
3.234323,-0.0387,-0.2363,0.2970,0.381
3.239717,-0.7594,0.3536,-0.0815,0.842
3.243500,-1.5594,-0.0152,-0.7464,1.729
3.248432,-1.3541,-0.2128,-0.8436,1.609
3.253297,-1.7511,-0.0608,-0.8627,1.953
3.258335,-1.9862,-0.9920,-0.5594,2.290
3.262855,-2.9885,-0.9884,-0.2545,3.158
3.267285,-1.6513,1.1378,0.2669,2.023
3.272437,-0.0823,1.6978,0.8092,1.883
3.277516,-0.0387,1.1441,0.9283,1.474
3.283952,2.0418,1.0219,1.3796,2.668
3.286725,2.3168,-0.4526,1.1415,2.622
3.294963,2.6751,-1.7239,0.9592,3.324
3.296719,3.1750,-2.3432,0.6131,3.993
3.301748,2.6971,-2.5184,0.0955,3.691
3.306189,2.7367,-1.8754,-0.3698,3.338
3.310819,2.0019,-0.9184,-0.7751,2.335
3.316544,1.3102,0.5572,-0.9985,1.739
3.320968,1.8808,0.6181,-0.4407,2.028
3.325449,0.9320,-0.4440,0.1603,1.045
3.331046,0.5773,1.0469,0.6048,1.340
3.335566,1.9788,1.7473,1.3061,2.945
3.339947,-0.4414,1.2470,1.4066,1.931
3.345123,2.2525,1.0319,1.9387,3.146
3.350294,0.2594,0.9490,1.1970,1.549
3.355632,-0.8255,2.7619,0.5434,2.933
3.359583,1.4143,0.8252,0.2868,1.662
3.364221,-4.0422,1.4709,-0.4453,4.325
3.369854,-0.5198,2.2985,-0.1786,2.363
3.375475,-1.6227,1.1280,-0.3749,2.011
3.379167,-0.6003,0.8645,-0.0416,1.053
3.383782,0.3738,0.3618,0.5084,0.727
3.388485,-3.4945,-0.4953,0.2921,3.542
3.394232,-1.0401,1.3782,0.2484,1.744
3.398257,0.4482,1.2999,-0.1675,1.385
3.403597,0.9102,1.1113,-0.6543,1.579
3.407561,-0.8996,2.0325,-1.6383,2.761
3.413635,-0.5669,0.8607,-1.3490,1.698
3.417717,-0.7930,-0.8318,-1.0515,1.558
3.422132,0.7861,-1.4627,-0.1711,1.669
3.426956,-0.4556,-0.2157,-0.4424,0.671
3.432177,-0.1820,1.5265,-0.6115,1.654
3.436802,1.1529,0.7876,-1.5155,2.061
3.441568,0.6620,0.3928,-0.2095,0.798
3.446711,1.9762,-0.5890,-1.0358,2.308
3.452623,1.5117,-0.6683,-0.8964,1.880
3.456520,1.5586,-0.6947,-0.3057,1.734
3.461269,1.5271,-1.1982,0.7937,2.097
3.466642,2.3684,-2.5211,1.0500,3.615
3.470617,-1.7552,-0.0398,-0.2039,1.767
3.475495,0.4473,-1.4134,0.3382,1.521
3.480435,-1.6676,-0.5749,1.6026,2.383
3.484783,-1.4864,-1.2398,1.2943,2.328
3.490765,-2.3963,-1.4073,0.0186,2.779
3.494858,-2.6485,-0.1343,-0.5537,2.709
3.499208,-2.4723,0.4251,-1.2320,2.795
3.503866,-1.6597,0.8461,-0.9298,2.082
3.509824,-1.7071,0.5478,1.0655,2.086
3.513880,-1.2712,0.6938,0.4769,1.525
3.518850,-0.7726,1.5253,0.1957,1.721
3.523455,-0.9945,1.1744,-0.1156,1.543
3.528564,-0.9628,0.7258,-1.3149,1.784
3.533376,-0.6791,-0.5326,-1.2163,1.491
3.538088,-1.2167,-1.0715,-2.2336,2.760
3.542513,-1.3220,-1.3918,-2.5375,3.182
3.548111,-0.9394,-2.6103,-1.4841,3.146
3.552867,-0.5291,-2.8188,-0.0208,2.868
3.557337,0.2812,-2.4987,1.7125,3.042
3.562290,-0.1113,-1.5881,1.5579,2.227
3.567181,0.2866,2.3615,0.7684,2.500
3.572410,1.6760,0.8410,1.6532,2.500
3.577227,-0.1109,2.7691,0.1857,2.778
3.582476,-0.5721,2.0214,0.6757,2.207
3.588118,-0.7415,1.5211,0.7080,1.834
3.592390,-0.1712,2.3446,1.1748,2.628
3.596957,0.6945,2.9466,0.7747,3.125
3.601197,1.0364,2.0458,-0.2333,2.305
3.607583,0.5763,2.0714,-0.1680,2.157
3.611137,2.6414,1.8563,1.5600,3.586
3.615638,1.2456,2.4974,2.5014,3.748
3.621213,1.9664,0.7776,2.8092,3.516
3.627834,2.1700,-1.3177,0.5949,2.608
3.630496,2.7016,-2.8329,-0.3974,3.935
3.636058,1.2563,-3.9793,-1.1729,4.335
3.641399,1.8139,-2.2115,-1.0092,3.033
3.644762,1.6453,-2.6646,-0.3212,3.148
3.649167,1.2674,-1.1433,0.1478,1.713
3.656162,2.4012,-0.7670,1.7247,3.054
3.658897,1.7813,-0.7554,1.7805,2.629
3.665080,0.7584,-1.7908,1.2472,2.310
3.673040,0.3124,-1.0453,0.5217,1.209
3.675905,-0.0311,-0.6636,-0.1620,0.684
3.678456,0.1167,0.3849,-0.8637,0.953
3.682924,0.3866,0.4303,-1.2947,1.418
3.688644,0.2381,-0.8063,-1.1755,1.445
3.693049,-0.2675,-1.3262,-0.5994,1.480
3.697499,-1.2749,-1.1590,-0.5007,1.794
3.702137,-1.6595,-1.2810,-0.0426,2.097
3.707725,-1.6280,0.2995,-0.5493,1.744
3.713685,-1.4680,0.7946,-0.9479,1.920
3.717359,0.8061,-5.3511,0.7180,5.459
3.721430,-1.3590,-0.5416,-1.1810,1.880
3.726233,-0.9122,0.5844,-0.4739,1.183
3.731051,-0.2865,0.6460,-0.2704,0.757
3.736963,-0.3787,1.2705,-0.0766,1.328
3.740858,0.1524,7.3991,-0.4322,7.413
3.745572,0.1270,1.5428,0.0178,1.548
3.750829,-0.0952,-2.6398,0.2086,2.650
3.756308,0.5091,-2.8861,0.8224,3.044
3.760775,0.7813,-2.0577,0.9896,2.413
3.765600,0.8784,-1.1938,0.6634,1.624
3.770226,0.8358,-2.5734,0.7440,2.806
3.776681,0.6394,-2.4110,0.3277,2.516
3.780680,0.4880,-0.4096,-0.0985,0.645
3.785426,0.4590,0.6064,-0.1866,0.783
3.789750,0.3254,0.8887,-0.1180,0.954
3.795729,0.2083,0.2835,-0.2539,0.434
3.799810,0.1847,0.2864,-0.1077,0.357
3.804209,0.2578,-0.7096,0.3773,0.844
3.809384,0.8306,0.5905,0.5377,1.152
3.815390,0.5839,4.0402,0.1368,4.084
3.819605,0.7288,-1.3444,-0.0874,1.532
3.823812,1.0174,-1.6942,0.0369,1.977
3.828738,0.9991,-0.7117,0.6095,1.370
3.834175,0.7531,-1.5259,0.8153,1.887
3.838476,0.4624,-1.7121,0.6312,1.882
3.843378,0.2783,-1.8818,0.6534,2.011
3.847600,-0.1823,-1.7416,0.6896,1.882
3.852925,0.1131,-0.6287,0.2487,0.685
3.857713,-0.5365,-0.9622,-0.0946,1.106
3.862258,-0.4140,-0.8058,-0.1357,0.916
3.866672,-0.9455,-1.0447,0.0151,1.409
3.872030,-0.9076,-0.3802,-0.1821,1.001
3.877867,-0.3717,-0.1397,-0.2761,0.484
3.882059,-0.6517,-0.7580,-0.7214,1.233
3.887407,-0.3638,-1.4599,-0.9381,1.773
3.891365,-0.3550,-1.1274,-0.6440,1.346
3.897623,-0.6289,0.2370,-1.0580,1.253
3.901767,0.3980,1.1107,0.2202,1.200
3.906065,-0.4789,0.8389,-0.0831,0.970
3.911337,0.0241,0.8165,0.1315,0.827
3.917366,-0.4437,-0.1001,0.0610,0.459
3.921101,-0.3201,-0.1101,0.1089,0.356
3.927503,-0.0676,0.0336,0.2821,0.292
3.930486,-0.1268,0.3566,0.5009,0.628
3.936061,-0.1458,0.0482,0.1912,0.245
3.939795,0.3018,0.8720,0.0755,0.926
3.944826,0.3966,0.8782,0.1679,0.978
3.950454,0.5238,-0.0160,0.1449,0.544
3.954660,0.5361,-0.1959,0.1601,0.593
3.959752,0.3542,0.0699,0.2693,0.450
3.964885,0.3978,0.1786,0.4057,0.596
3.968598,0.3048,-0.4224,0.1453,0.541
3.974451,0.3338,-0.7620,0.1173,0.840
3.978311,0.1330,-0.3773,0.1169,0.417
3.983852,-0.1055,1.0250,0.2223,1.054
3.988018,-0.4364,0.7799,-0.2491,0.928
3.993160,-0.3306,0.1402,-0.0717,0.366
3.997639,-0.3315,-0.0615,-0.1912,0.388
4.003267,-0.3002,0.0785,-0.0715,0.318
4.007553,-0.2431,-0.0352,-0.0404,0.249
4.012304,-0.1651,-0.3971,0.0968,0.441
4.017184,-0.0214,-1.3628,0.4424,1.433
4.022213,0.3250,-0.9429,-0.1397,1.007
4.028671,0.5041,1.0140,0.4689,1.226
4.032038,0.7745,1.2904,0.1384,1.511
4.036388,0.8931,0.4169,0.7923,1.265
4.040961,0.7299,-0.1734,1.0952,1.328
4.046093,0.5388,-0.3754,0.9969,1.194
4.050627,0.4199,-0.2494,0.6473,0.811
4.056366,0.1850,-0.0708,0.2360,0.308
4.061012,-0.0107,0.1029,-0.0510,0.115
4.065112,0.1406,0.1902,-0.2404,0.337
4.071155,-0.0485,0.1863,-0.4392,0.480
4.078657,-0.0878,0.1581,-0.6020,0.629
4.079723,-0.0224,0.1370,-0.5280,0.546
4.084894,-0.0707,0.1084,-0.4923,0.509
4.090208,0.7977,0.3768,-0.2108,0.907
4.094665,-0.2845,-0.4256,1.0651,1.182
4.099549,-0.2209,-0.2714,-0.6993,0.782
4.104830,-0.6771,0.2000,-0.7673,1.043
4.109338,-0.8747,0.4441,-0.8172,1.277
4.114632,1.0706,1.7385,3.4191,3.982
4.119011,-0.9798,-2.1181,-3.7112,4.384
4.123230,0.7338,0.1855,1.5201,1.698
4.128430,0.4246,1.2453,-1.2255,1.798
4.133671,-0.5855,-0.3724,-0.7893,1.051
4.139164,1.4493,-0.3846,0.6448,1.632
4.143138,-0.3458,0.0778,0.4260,0.554
4.148205,-0.5280,0.4409,0.1460,0.703
4.153085,-0.5072,-0.3636,-0.5695,0.845
4.157663,-0.5968,-0.0098,-0.0692,0.601
4.162129,-0.6527,-0.1018,-0.0854,0.666
4.166876,-0.2339,0.0858,-0.1875,0.312
4.172396,-0.1557,-0.0928,-0.3303,0.377
4.178338,0.0016,-0.2025,-0.2391,0.313
4.182325,0.6633,1.1777,-0.2933,1.383
4.186892,-0.6339,-0.5651,-0.7995,1.166
4.191083,0.0805,-0.6907,0.7377,1.014
4.198038,0.2512,-1.1339,-0.5271,1.275
4.200745,0.3489,0.3964,0.1318,0.544
4.205716,0.3109,0.8442,-0.6282,1.097
4.212096,0.3149,-0.9279,-0.3315,1.034
4.215830,0.4640,-0.7110,0.7135,1.109
4.220036,0.0600,0.8805,1.0551,1.376
4.226230,-0.3540,0.9132,0.2915,1.022
4.229649,-0.0083,-0.1330,0.4489,0.468
4.234919,-0.1576,-0.1353,0.0342,0.211
4.239194,-0.1322,0.0081,-0.2233,0.260
4.244563,-0.0044,-0.1645,-0.4096,0.441
4.248964,-0.0622,0.2038,-0.2995,0.368
4.255050,0.1353,-0.2771,-0.2057,0.371
4.258184,0.2599,-0.4175,0.0302,0.493
4.263420,0.1922,-0.3113,0.0996,0.379
4.267874,0.3527,-0.0831,0.1989,0.413
4.272975,0.1837,-0.0009,0.2999,0.352
4.278784,0.0114,-0.2349,0.3571,0.428
4.282717,-0.1920,-0.1107,0.4201,0.475
4.287205,-0.3555,0.0747,0.3092,0.477
4.292052,-0.4260,0.0732,-0.3564,0.560
4.297064,0.0183,-0.0358,0.0807,0.090
4.302335,-0.1273,-0.4862,0.0822,0.509
4.306651,0.1598,-0.0770,0.0627,0.188
4.311267,0.2588,0.0067,0.0266,0.260
4.317539,0.3852,-0.1770,0.4220,0.598
4.321457,0.6960,-0.1897,0.4978,0.877
4.326180,0.8996,0.0805,0.4735,1.020
4.331224,0.7587,0.2459,0.7369,1.086
4.338228,0.7278,-0.0354,0.6725,0.992
4.341481,0.3421,-0.2587,0.2926,0.519
4.345352,0.2061,-0.2138,-0.0008,0.297
4.350988,-0.0457,-0.3055,-0.3060,0.435
4.355305,-0.3003,-0.3214,-0.3757,0.578
4.361593,-0.4985,-0.2568,-0.4500,0.719
4.367221,-0.5297,0.0079,-0.1000,0.539
4.369401,-0.3649,0.2627,0.0473,0.452
4.379648,-0.2496,0.0436,0.0370,0.256
4.380161,-0.2025,0.2668,0.0972,0.349
4.384105,-0.2929,0.0449,0.2039,0.360
4.388966,0.0329,-0.0378,0.1395,0.148
4.394412,0.1264,-0.1400,0.8300,0.851
4.398767,-0.1570,0.2407,0.5211,0.595
4.403332,-0.0007,-0.4404,0.1688,0.472
4.408628,0.5513,-0.2565,0.3237,0.689
4.412990,0.8013,-0.0503,0.1411,0.815
4.418018,0.9394,-0.2952,0.5268,1.117
4.423078,0.5711,-0.0326,0.6723,0.883
4.427561,0.0436,0.6429,0.3018,0.712
4.432433,-0.2524,-0.2824,-0.2866,0.475
4.437614,0.3095,-1.4460,0.0266,1.479
4.442236,-0.1291,-3.1687,0.1745,3.176
4.447842,1.3565,2.6709,1.4177,3.314
4.452002,-1.2032,2.3468,-1.3760,2.975
4.456710,-0.3129,-0.1130,-0.6245,0.708
4.461341,-0.2038,-0.5876,-0.3689,0.723
4.466277,-0.4869,0.1434,-0.1906,0.542
4.471303,-0.3268,0.1945,-0.2448,0.452
4.476359,-0.0351,-0.0439,-0.2190,0.226
4.481266,0.1277,-0.3512,-0.1347,0.397
4.489557,0.1767,-0.2538,-0.0259,0.310
4.497133,0.1690,0.1163,0.3294,0.388
4.497896,0.1592,0.1081,0.1936,0.273
4.500186,0.0419,0.0999,0.1838,0.213
4.505046,0.1164,-0.0948,0.0228,0.152
4.509969,0.1195,0.0695,-0.0019,0.138
4.514740,-0.0516,0.1475,0.0685,0.171
4.520014,-0.1448,0.0146,-0.0172,0.147
4.525838,-0.2374,0.0775,-0.2206,0.333
4.528991,-0.3336,0.2619,-0.3955,0.580
4.534216,-0.0190,0.1804,-0.3773,0.419
4.538963,0.1404,-0.2141,-0.1404,0.292
4.543716,0.1548,-0.0796,-0.0837,0.193
4.549016,0.1097,0.0644,-0.2211,0.255
4.553813,0.3061,0.0647,-0.0695,0.320
4.558151,0.3553,-0.0423,0.1295,0.381
4.562936,0.3891,-0.1441,0.1912,0.457
4.567869,0.4697,-0.0902,0.2497,0.540
4.572557,0.4728,-0.1410,0.7179,0.871
4.577872,0.0553,-0.0196,0.1980,0.207
4.582539,-0.0737,-0.2455,-0.1448,0.294
4.587065,-0.2623,-0.2970,-0.3844,0.552
4.591832,-0.2675,-0.0140,-0.2246,0.350
4.596951,-0.0292,-0.1451,0.0090,0.148
4.601928,-0.0090,-0.3143,0.1486,0.348
4.606377,-0.2588,-0.5151,-0.5717,0.812
4.611896,-0.3221,-0.4054,-0.6617,0.840
4.617896,-0.0572,0.0578,0.8012,0.805
4.621561,-0.4786,-0.3386,-0.7874,0.982
4.628816,-0.3437,0.2988,-0.5981,0.752
4.630976,0.2470,1.1252,-0.1173,1.158
4.636943,0.2940,-0.2439,0.1641,0.416
4.640617,0.0674,-0.0022,-0.1184,0.136
4.646282,0.0116,0.3224,-0.1497,0.356
4.652920,-0.1242,-0.7070,0.2379,0.756
4.655038,-0.1569,-0.0994,0.2153,0.284
4.659786,0.3186,0.3451,0.3420,0.581
4.664596,0.1604,-0.2292,0.1636,0.324
4.669535,0.5432,0.0652,0.3417,0.645
4.674935,0.4926,-1.4701,0.7674,1.730
4.680589,-0.1662,-0.5264,0.3186,0.637
4.684087,0.3078,0.4381,0.9561,1.096
4.688795,0.2555,0.0273,0.2092,0.331
4.694305,0.0565,-0.1510,-0.4939,0.519
4.698509,1.5742,-0.5821,0.7413,1.835
4.703134,0.2905,0.4485,0.1304,0.550
4.708103,-0.0768,0.1408,-0.8055,0.821
4.715893,-0.1238,0.0318,-0.2654,0.295
4.717732,-0.3074,-0.0724,-0.3047,0.439
4.722478,-0.2697,-0.3862,0.0819,0.478
4.727630,-2.8302,-5.7408,-1.5108,6.576
4.732314,2.2457,-0.7453,2.1083,3.169
4.737333,0.1142,2.6065,-0.2351,2.620
4.742157,0.2614,3.0876,0.1639,3.103
4.747278,-0.8925,0.8508,-0.5042,1.332
4.751650,-0.4514,-0.4677,-0.0522,0.652
4.756745,0.1036,-0.2011,0.6967,0.733
4.761494,0.3298,-0.1187,0.8222,0.894
4.766889,0.2634,-0.2594,0.2565,0.450
4.770978,-0.3380,0.0813,-0.6736,0.758
4.777705,-0.9224,0.7883,-1.0759,1.622
4.786070,-0.8662,1.1797,-0.9428,1.741
4.786759,-0.8527,0.0163,-0.6023,1.044
4.790447,0.1998,-0.9771,-0.2242,1.022
4.795633,0.9265,-0.1217,0.1395,0.945
4.800485,1.0075,-0.0838,0.5215,1.138
4.804725,0.5244,-0.0021,0.9826,1.114
4.809459,0.3682,-0.0454,-0.4007,0.546
4.814475,0.6558,-0.5630,0.2161,0.891
4.819311,-1.0533,0.7249,-0.2655,1.306
4.825623,-0.6823,0.1486,-0.7260,1.007
4.829795,0.1484,-0.1920,-0.2085,0.320
4.834455,0.4212,-0.1872,0.0302,0.462
4.838920,0.4873,-0.0984,0.5748,0.760
4.843857,0.3215,-0.2941,0.7273,0.848
4.848857,0.1941,-0.3246,0.6939,0.790
4.853236,0.0120,-0.3645,0.3837,0.529
4.858561,-0.0463,-0.1177,0.0924,0.157
4.865968,0.0159,0.2193,-0.2606,0.341
4.872881,-0.1918,0.1656,-0.5619,0.616
4.883573,-0.2235,0.0926,-0.6197,0.665
4.884057,-0.0612,0.1654,-0.2913,0.341
4.884477,0.0990,-0.0391,-0.1202,0.161
4.888876,0.0350,0.0869,-0.0659,0.115
4.891755,0.2691,0.0434,0.2333,0.359
4.897170,0.1934,-0.2915,0.1724,0.390
4.901759,0.4510,-0.1788,0.4624,0.670
4.906361,0.1369,-0.1307,0.1178,0.223
4.910956,0.0889,-0.0182,0.1534,0.178
4.916312,0.0438,-0.1304,0.2567,0.291
4.921289,0.0156,-0.1204,0.2047,0.238
4.925775,0.0386,-0.1820,0.2529,0.314
4.930665,0.1655,-0.1740,0.0878,0.256
4.936566,0.2714,0.0805,0.0378,0.286
4.941218,0.1859,0.0429,-0.0856,0.209
4.947497,0.1458,-0.0018,-0.1230,0.191
4.951392,0.0264,0.0084,-0.2662,0.268
4.955948,0.0032,0.0976,-0.1224,0.157
4.960472,-0.0689,-0.0432,-0.1343,0.157
4.965718,-0.0760,0.0884,0.0556,0.129
4.969470,-0.1558,0.1019,-0.0322,0.189
4.976866,-0.3300,0.1098,-0.1571,0.382
4.980045,-0.4232,0.2248,-0.1438,0.500
4.984047,-0.3090,0.0812,-0.1428,0.350
4.989065,0.1159,-0.9128,0.0806,0.924
4.993449,0.5135,-1.8071,0.5492,1.957
4.999027,0.4937,-0.3453,0.9395,1.116
5.003620,0.6363,-0.2653,0.6514,0.948
5.007977,-0.6716,-1.4895,-0.4823,1.704
5.013243,-0.6559,0.6388,-0.0524,0.917
5.019148,-0.6611,1.3859,-0.4929,1.613
5.022728,-1.2602,3.2887,-1.9355,4.019
5.027335,-2.6927,5.2147,-4.6627,7.496
5.033477,-0.1427,-1.2458,1.5751,2.013
5.038844,3.6308,-7.8305,8.3580,12.015
5.041991,3.8041,-5.5512,2.6811,7.244
5.047062,-0.4975,3.3914,-2.1436,4.043
5.051833,-2.0711,9.5430,-4.5825,10.787
5.057059,2.0025,-2.2146,5.3233,6.103
5.061706,0.9178,-6.6458,0.7513,6.751
5.066725,-1.5542,2.9875,-1.7712,3.805
5.071176,-0.8378,2.6729,8.7655,9.202
5.076928,-0.2323,-5.7268,-6.3268,8.537
5.081063,-0.1826,1.5571,-1.6909,2.306
5.086169,-0.6835,4.0959,-0.1968,4.157
5.090926,0.4808,-0.7667,-0.2192,0.931
5.095683,0.5923,-2.0080,0.8655,2.265
5.099981,0.0550,0.0838,0.7569,0.763
5.105384,0.1099,0.4589,0.8814,1.000
5.110787,0.2572,-0.7276,0.5312,0.937
5.114938,0.1112,-0.6189,0.0697,0.633
5.119490,0.0285,0.2073,-0.1495,0.257
5.124784,0.0781,0.2245,-0.5089,0.562
5.129197,0.1714,0.0720,-0.4067,0.447
5.134826,0.3128,0.1541,-0.2005,0.402
5.139007,-0.0344,0.2023,-0.4414,0.487
5.143251,-0.0012,0.1213,-0.4281,0.445
5.149563,-0.1451,0.2652,-0.3117,0.434
5.153445,-0.0401,0.2224,-0.0674,0.236
5.158212,-0.1421,0.1149,-0.1293,0.224
5.163512,-0.1445,0.0217,-0.0445,0.153
5.167660,-0.1270,0.0986,-0.1845,0.245
5.173396,0.0590,0.4837,-0.0203,0.488
5.177991,0.1520,1.0489,0.8283,1.345
5.182476,3.0166,0.7581,-0.7867,3.208
5.186979,-0.2693,-3.7547,-0.3552,3.781
5.192465,-0.3440,-0.9228,0.5295,1.118
5.196955,-1.1645,1.4239,-0.4346,1.890
5.201862,-0.6859,0.2118,-0.4888,0.868
5.207174,-0.1754,-0.8047,-0.1540,0.838
5.213872,0.5162,-0.0237,0.0375,0.518
5.216474,0.4976,0.4075,-0.3045,0.712
5.221372,0.2125,0.0535,-0.1728,0.279
5.226795,1.0256,2.6107,-0.0047,2.805
5.230967,-1.1149,-0.6634,-0.9910,1.633
5.236412,1.8297,-1.9240,2.3644,3.555
5.240222,0.4409,0.2148,0.4016,0.634
5.244912,-0.2773,0.5257,-0.6941,0.914
5.250355,-0.2339,-0.3125,-0.2080,0.442
5.255670,-0.7500,-0.6875,-0.6100,1.186
5.260082,0.4387,-0.7646,0.8407,1.218
5.264610,0.9705,0.5714,0.7033,1.328
5.270271,-0.5899,0.3530,-1.0864,1.286
5.275901,0.0390,-0.0116,0.2434,0.247
5.280266,-0.3184,-0.6083,-0.0167,0.687
5.283657,-0.3748,-0.4184,-0.2319,0.608
5.288379,-0.4577,-0.1432,-0.3513,0.595
5.293453,-0.3604,-0.0649,-0.4177,0.555
5.297948,-0.1518,0.0203,-0.2981,0.335
5.302737,-0.1573,0.0693,-0.4202,0.454
5.307998,-0.1407,0.0532,-0.2553,0.296
5.312195,-0.1413,0.2427,-0.2175,0.355
5.317650,-0.0889,0.1887,-0.1658,0.266
5.322622,0.5240,-0.0409,0.4165,0.671
5.326878,1.0138,-0.0665,0.8760,1.342
5.331688,0.3027,-0.0782,0.3286,0.454
5.336762,-0.2973,0.0746,-0.0283,0.308
5.341885,-0.3064,0.0717,0.1013,0.331
5.346767,0.1223,-0.1087,0.3736,0.408
5.351371,-0.3700,-0.2301,-0.2852,0.521
5.357250,-0.6275,-0.0585,-0.4511,0.775
5.360860,-0.6357,-0.1269,-0.3579,0.740
5.365953,-0.7417,1.2271,0.2956,1.464
5.370746,-0.7550,1.4816,-1.3757,2.158
5.375842,0.0759,0.4852,-0.1809,0.523
5.380159,0.1728,-0.6603,-0.0910,0.689
5.385908,0.3562,-0.4415,0.2726,0.629
5.390137,0.3461,-0.3018,0.3907,0.603
5.395097,-0.1986,-0.3085,1.0070,1.072
5.399289,0.4045,0.0206,-0.5169,0.657
5.405131,0.4256,-1.1154,-0.0651,1.196
5.409556,0.9319,-0.8524,0.6475,1.419
5.414180,0.6873,-0.3235,0.3598,0.841
5.418742,0.4754,-0.0316,0.2904,0.558
5.424531,0.2621,-0.1943,0.1586,0.363
5.428380,0.2049,-0.2203,0.2471,0.389
5.433419,0.1025,-0.1148,0.1681,0.228
5.439191,0.0527,-0.0763,0.0179,0.094
5.443740,-0.0264,-0.0381,-0.0695,0.084
5.447846,-0.0722,-0.0573,0.1187,0.150
5.453040,-0.0681,0.2175,0.0227,0.229
5.457799,0.0174,-0.0818,0.0970,0.128
5.463599,0.1413,-0.1288,0.3128,0.367
5.467489,0.9208,0.0616,1.5660,1.818
5.472130,0.0859,-0.5904,-0.4299,0.735
5.477758,-0.1277,-0.0799,-0.3378,0.370
5.482112,-0.1027,0.3491,-0.0268,0.365
5.486859,0.4289,0.3977,-0.3147,0.664
5.491492,-1.3003,-0.4756,-0.7107,1.556
5.497753,1.0055,0.1536,0.4984,1.133
5.501401,1.1893,0.0317,0.7622,1.413
5.506027,-0.2407,-0.1337,-0.3737,0.464
5.511086,-0.0222,0.2820,0.0142,0.283
5.516768,-0.0972,-0.0751,-0.1772,0.216
5.521596,0.2898,-0.2323,-0.3419,0.505
5.525605,0.2945,-0.0546,-0.1803,0.350
5.530227,-1.2205,-0.9694,-1.2386,1.991
5.536172,0.7777,0.2623,1.9068,2.076
5.540157,0.9125,0.9893,1.7212,2.185
5.545021,-0.7557,-0.8892,0.2261,1.189
5.549547,-0.8223,-0.4084,0.4051,1.004
5.556018,-0.7554,0.3686,-1.6525,1.854
5.559524,0.3050,0.4974,-1.1391,1.280
5.564405,0.5570,-0.1031,-1.0740,1.214
5.569552,0.5152,-0.0667,-0.0795,0.526
5.575491,0.1955,-0.0735,0.1901,0.282
5.578857,0.0743,-0.1879,0.6452,0.676
5.583517,-0.0210,-0.1181,0.3857,0.404
5.588511,0.0247,0.0138,0.4238,0.425
5.593712,-0.0563,0.0355,0.0555,0.087
5.598539,0.1075,0.0980,0.0935,0.173
5.603384,0.1842,0.0700,0.0402,0.201
5.607451,0.3523,0.0659,0.0764,0.366
5.612462,0.2492,-0.1559,-0.0030,0.294
5.617535,-0.0564,-0.1317,-0.1570,0.212
5.622365,-0.2671,-0.0862,-0.2150,0.354
5.627592,-0.2277,-0.0937,-0.1701,0.299
5.631861,-0.0980,-0.0870,-0.0128,0.132
5.637726,0.2087,-0.3433,-0.0507,0.405
5.641447,0.1989,-0.0040,0.2412,0.313
5.646422,-0.1729,0.1983,-0.2302,0.350
5.651309,-0.1239,0.0152,-0.2163,0.250
5.656784,-0.1204,0.1432,-0.1165,0.220
5.660761,0.0017,0.0107,-0.1131,0.114
5.665479,0.3078,-0.3369,0.0800,0.463
5.671233,1.5513,-0.7803,0.9753,1.992
5.677123,-0.6908,1.1268,-1.1065,1.724
5.680921,0.0163,0.1762,0.0465,0.183
5.686108,-0.2690,0.3335,0.8117,0.918
5.690356,-0.3427,0.0692,-0.6009,0.695
5.694576,-0.1725,-0.0949,-0.4204,0.464
5.699787,-0.3547,-0.2686,-0.4253,0.616
5.704714,0.0684,-0.2502,-0.1982,0.326
5.709436,0.6280,0.0034,0.4478,0.771
5.714872,0.3651,-0.0230,0.2397,0.437
5.719863,0.0370,0.0846,-0.0875,0.127
5.725018,-0.1006,0.3663,0.5708,0.686
5.729902,-0.4517,-0.4364,-0.6797,0.925
5.734284,-0.2152,-0.0763,-0.0110,0.229
5.738479,0.0467,0.0233,0.1355,0.145
5.743952,0.0046,-0.0540,-0.2556,0.261
5.748692,0.2174,0.1225,0.5061,0.564
5.752775,0.6623,-0.3336,0.8392,1.120
5.757740,0.4882,-0.1768,0.3053,0.602
5.762583,0.3899,-0.1195,0.3547,0.541
5.767200,0.5154,-0.0575,0.2383,0.571
5.772546,0.4114,0.0449,0.3811,0.563
5.777477,0.2187,-0.1376,1.7206,1.740
5.781665,0.7247,-0.5478,1.6952,1.923
5.787242,-1.0369,0.3196,-0.8805,1.397
5.791593,-2.4387,0.9328,-3.3296,4.231
5.797018,0.3470,-1.1967,0.0079,1.246
5.801303,2.7987,-0.2875,2.7459,3.931
5.806885,0.0369,0.6103,-2.5787,2.650
5.810786,-0.2409,-0.0973,0.1597,0.305
5.816083,0.9495,-1.4025,1.4756,2.246
5.820653,0.8364,-0.7692,0.7591,1.367
5.825698,0.0541,0.7064,-0.4937,0.863
5.831506,-0.9803,1.2289,-0.8318,1.778
5.836240,-0.5567,0.6887,-1.1701,1.467
5.839545,-0.8176,0.7053,-1.2981,1.689
5.844981,-0.4056,0.5064,-0.2483,0.695
5.850629,-0.2147,-0.4428,-0.2536,0.554
5.856287,0.3513,-0.4361,0.5897,0.813
5.859509,0.1954,-0.9075,0.9108,1.301
5.864672,1.7297,0.6925,4.5148,4.884
5.869508,-2.7730,-0.0961,0.8453,2.901
5.874345,-0.5103,4.8800,2.2784,5.410
5.879284,-11.3693,-2.3052,-12.8172,17.287
5.883687,4.7252,-0.7032,5.4523,7.249
5.888256,3.6169,-2.1054,1.0830,4.323
5.893077,5.7110,0.4656,2.3286,6.185
5.898684,0.9276,0.2572,-0.2947,1.007
5.903005,-1.2954,0.1726,-0.0279,1.307
5.907393,-1.5960,-0.9910,0.5511,1.958
5.912308,-0.6443,-0.5142,0.4796,0.954
5.919073,0.3723,0.2882,0.1644,0.499
5.923092,0.6366,-0.0607,-0.3025,0.707
5.926546,0.2715,-0.1975,-0.3372,0.476
5.931635,-0.5811,0.3126,-0.3423,0.743
5.936224,-0.4995,-0.2036,0.0124,0.540
5.940939,-0.1166,-0.0179,-0.1500,0.191
5.947117,0.1647,0.0053,-0.1539,0.225
5.951313,0.3840,0.0909,0.0673,0.400
5.956217,0.1678,-0.2014,0.0919,0.278
5.960856,0.0911,-0.0892,0.2938,0.320
5.966663,0.0556,-0.1156,0.2782,0.306
5.971812,0.0611,-0.1586,0.1792,0.247
5.976329,0.2701,-0.2883,1.2891,1.348
5.979967,1.2836,-1.3527,2.7888,3.355
5.985706,-0.6179,-0.0407,-1.1323,1.291
5.989526,-0.7933,1.3081,-0.7358,1.698
5.994811,0.4361,-0.4842,0.7634,1.004
5.999557,0.1415,0.0733,-0.2949,0.335
6.004788,-0.7330,1.0122,-1.3843,1.865
6.008757,-0.4357,0.2597,-1.2267,1.327
6.015638,0.1150,-0.4626,-1.2090,1.300
6.020041,0.4965,0.0477,-0.5382,0.734
6.024620,0.2885,0.2918,-0.0431,0.413
6.028152,-0.2694,-0.0744,-0.4119,0.498
6.033104,-0.1043,-0.0491,0.6717,0.681
6.037946,-0.5409,0.2651,0.6901,0.916
6.042874,-0.0794,-0.1382,0.4140,0.444
6.048164,0.0747,0.3412,0.2571,0.434
6.052579,0.0668,0.6720,-0.1951,0.703
6.058006,0.0738,0.3450,-0.1488,0.383
6.064017,0.1848,0.3320,0.8373,0.920
6.066580,-0.0079,-0.2305,0.2243,0.322
6.071973,0.3739,-0.3204,0.0565,0.496
6.076344,0.4546,-0.2715,-0.1822,0.560
6.081358,0.3664,-0.2248,-0.0014,0.430
6.086346,-0.0596,-0.4893,-1.1179,1.222
6.091433,0.1594,-0.0078,-0.0008,0.160
6.095819,-0.0370,0.0477,-0.0618,0.086
6.100279,0.1479,-0.2219,-0.0541,0.272
6.105553,0.3545,-0.3978,0.2104,0.573
6.110494,0.3106,-0.2744,0.1411,0.438
6.115700,0.1258,-0.1991,-0.0914,0.253
6.120484,0.2191,-0.1934,0.0573,0.298
6.126479,0.6268,-0.8558,0.2270,1.085
6.129911,0.3846,-0.0696,-1.0615,1.131
6.135727,-0.0786,0.4130,-0.1429,0.444
6.139497,-0.4004,0.1788,0.4313,0.615
6.144181,-0.5440,-0.4550,0.2589,0.755
6.149812,-0.3833,-0.5306,0.0731,0.659
6.156331,0.4253,1.4398,0.8417,1.721
6.160375,1.0419,0.9391,0.9752,1.708
6.164317,0.6991,-1.9476,0.2470,2.084
6.168369,-0.1535,-0.7301,-0.7748,1.076
6.173524,-2.6254,3.0885,0.3028,4.065
6.178734,0.1029,-0.3661,1.1450,1.207
6.182711,-0.0212,-2.5011,-0.6046,2.573
6.187395,0.1227,0.8807,-0.2409,0.921
6.192867,0.0613,0.9991,-1.0565,1.455
6.197595,0.3477,-0.2910,-0.4731,0.655
6.202169,0.6485,-0.8404,0.4620,1.158
6.206752,0.1937,0.3492,0.4252,0.583
6.213877,0.4294,-0.5690,0.2507,0.756
6.218031,0.4791,-0.5223,0.4142,0.821
6.222226,0.4211,-0.3107,0.1445,0.543
6.226204,-0.0234,0.2546,-0.1565,0.300
6.232246,0.5215,0.0689,0.0558,0.529
6.236555,1.1085,-0.4876,0.0686,1.213
6.240398,-0.0060,-0.4457,-0.8545,0.964
6.245829,0.3485,0.3297,0.9748,1.086
6.250647,-1.2443,0.5790,0.0495,1.373
6.256370,-1.4037,0.5157,0.2668,1.519
6.260905,-0.1602,-0.4871,0.3328,0.611
6.265675,0.2140,-1.3851,0.2307,1.420
6.270964,0.5332,0.6860,-0.1893,0.889
6.278362,0.4186,0.9179,-0.9588,1.392
6.279781,-0.1095,0.5656,-0.7179,0.920
6.284511,-0.7780,-0.1406,-0.4824,0.926
6.289925,-0.6073,0.1581,0.3766,0.732
6.294979,-0.2428,-0.1724,0.3104,0.430
6.299309,0.1860,-0.1797,-0.0002,0.259
6.304109,0.5283,0.1914,0.2371,0.610
6.309143,0.0951,-0.2822,-0.8080,0.861
6.313582,0.1334,-0.0356,-0.5635,0.580
6.318327,0.0927,0.1295,-0.2600,0.305
6.323186,0.1147,-0.0332,-0.1243,0.172
6.327890,0.1390,-0.2578,0.1202,0.317
6.333403,-0.0078,0.0604,0.2051,0.214
6.337855,0.1220,-0.0285,0.7435,0.754
6.342834,0.0790,-0.3302,0.5638,0.658
6.347319,0.0430,-0.1008,0.3432,0.360
6.352654,-0.1029,-0.0583,-0.3516,0.371
6.357372,-0.0586,0.3401,-0.7605,0.835
6.363016,-0.5377,2.1623,-1.9961,2.992
6.366807,2.7560,1.4313,4.2497,5.263
6.371724,0.2103,-6.1927,-0.5154,6.218
6.377010,-0.4058,-0.6505,0.3661,0.850
6.384076,-0.4847,5.1303,0.5078,5.178
6.386871,-0.1472,0.5706,0.9692,1.134
6.390989,0.2094,-4.5783,0.0888,4.584
6.396362,-0.1469,-0.5915,-2.5709,2.642
6.400594,-0.7798,0.4773,-3.3063,3.430
6.405470,-0.4785,1.4416,-0.7321,1.686
6.410757,-0.6536,0.9316,0.0825,1.141
6.417231,0.0013,0.0348,0.5712,0.572
6.419815,-0.2079,0.4183,-0.2983,0.554
6.425299,-0.0394,0.4586,-0.9218,1.030
6.431341,0.1567,-0.4290,-0.1226,0.473
6.434832,0.0365,-0.1697,0.2213,0.281
6.440057,0.3817,-0.0754,1.2207,1.281
6.444026,0.3351,-0.5239,0.3908,0.734
6.449448,0.2076,-0.5993,0.2354,0.677
6.453577,-0.1218,-0.8617,-0.2774,0.913
6.458814,0.0360,0.7250,-0.1905,0.750
6.463402,0.0533,0.6888,-0.2837,0.747
6.473198,0.2530,0.1459,0.1823,0.344
6.474527,0.3246,-0.5491,0.4590,0.786
6.477989,0.2617,-0.2655,0.2579,0.453
6.482730,0.0022,0.0942,-0.0423,0.103
6.487890,-0.0775,0.1211,-0.3330,0.363
6.492231,0.0656,-0.0122,0.0391,0.077
6.497498,-0.0232,0.0246,0.0070,0.034
6.502347,0.0437,-0.0822,0.0898,0.129
6.508705,0.0603,-0.0502,-0.0043,0.079
6.511768,0.0532,0.0034,-0.0002,0.053
6.516720,0.0773,-0.0268,0.0091,0.082
6.521392,0.0969,-0.0401,0.0257,0.108
6.527441,0.0950,-0.0796,-0.0051,0.124
6.530719,0.0694,-0.0330,0.0073,0.077
6.535704,0.0942,-0.0318,0.0344,0.105
6.540924,0.0879,-0.0904,0.0977,0.160
6.548059,0.0916,-0.0771,0.0704,0.139
6.550229,0.0905,-0.0685,0.0506,0.124
6.555437,0.0753,-0.0455,0.0695,0.112
6.559937,0.0459,-0.0703,0.0674,0.108
6.565884,0.0549,-0.0567,0.0706,0.106
6.569811,0.0307,-0.0168,0.0719,0.080
6.575533,0.0520,-0.0438,0.0857,0.109
6.579917,0.0734,-0.0826,0.1360,0.175
6.584250,0.0783,-0.1022,0.1532,0.200
6.588744,0.1193,-0.0929,0.1616,0.221
6.594106,0.1101,-0.0812,0.1539,0.206
6.598457,0.0963,-0.0598,0.1541,0.191
6.603507,0.0873,-0.0599,0.1118,0.154
6.608702,0.0929,-0.1005,0.1468,0.201
6.612882,0.0768,-0.0742,0.0723,0.129
6.618032,0.0702,-0.0550,0.0558,0.105
6.623582,0.0764,-0.0666,0.0708,0.124
6.628684,-0.0156,-0.3700,-0.2339,0.438
6.632481,0.0415,0.1780,0.1510,0.237
6.637420,0.1131,-0.4081,0.0868,0.432
6.642723,-0.1253,0.1333,0.1587,0.242
6.647193,0.2094,0.3922,-1.0599,1.149
6.652227,-0.0386,0.2844,-0.6880,0.745
6.656868,0.0409,-0.4522,0.3970,0.603
6.661559,0.2073,-0.1856,0.4997,0.572
6.666811,-0.1377,0.4060,0.4419,0.616
6.671339,0.5343,-0.8322,0.7083,1.216
6.676415,0.2299,0.2553,0.1942,0.395
6.680994,0.0651,0.0981,-0.0304,0.122
6.692731,0.1111,-0.2071,0.2594,0.350
6.693663,0.0445,-0.0576,0.1283,0.148
6.696698,-0.0079,0.0199,-0.1776,0.179
6.700319,0.0042,-0.0031,-0.1796,0.180
6.705036,-0.0317,0.0000,-0.2299,0.232
6.709931,-0.0178,0.0031,-0.1914,0.192
6.715371,-0.0352,0.0586,-0.3474,0.354
6.720662,-0.1008,-0.0462,-0.0920,0.144
6.724998,-0.1452,-0.1175,0.0051,0.187
6.729043,-0.0582,0.0216,0.0283,0.068
6.734012,0.0864,-0.0162,-0.0801,0.119
6.738724,0.1211,0.0560,-0.2271,0.263
6.744247,0.0146,0.0658,-0.3268,0.334
6.748838,-0.0492,0.0014,-0.2736,0.278
6.753269,-0.0270,-0.0415,-0.0171,0.052
6.761426,-0.0503,0.0089,-0.0267,0.058
6.762695,0.0725,-0.0172,0.0448,0.087
6.767772,-0.0610,-0.0626,0.0398,0.096
6.773132,0.0279,-0.0504,0.0969,0.113
6.777524,0.0739,-0.0383,0.0172,0.085
6.783312,0.0507,-0.0979,0.0978,0.147
6.787580,0.0012,-0.0475,0.1735,0.180
6.791791,-0.0099,-0.0449,0.1343,0.142
6.797083,0.0817,-0.0304,0.0065,0.087
6.801843,0.0298,-0.0015,-0.0831,0.088
6.806176,0.0044,0.0392,-0.0078,0.040
6.811445,0.0218,0.0536,-0.0425,0.072
6.816246,0.0055,-0.0182,-0.1466,0.148
6.820994,-0.0038,-0.0613,-0.1646,0.176
6.826496,-0.0756,-0.0184,-0.2211,0.234
6.830796,-0.0207,0.0149,-0.1270,0.130
6.836757,0.0102,-0.0236,-0.0736,0.078
6.840914,0.0073,-0.0118,-0.0393,0.042
6.846207,0.0593,0.0380,-0.1559,0.171
6.850312,0.0535,-0.0484,-0.0084,0.073
6.855776,-0.4642,-0.0654,0.2877,0.550
6.860379,0.6624,0.1831,-0.1100,0.696
6.865071,-0.1975,-0.0878,0.1594,0.269
6.871175,-0.2232,-0.2271,-0.3166,0.449
6.876430,-0.1741,0.0968,-0.4493,0.491
6.880190,-0.1086,0.2589,-0.1804,0.334
6.884470,0.0801,-0.1903,0.2834,0.351
6.888967,0.0748,-0.0543,0.0623,0.111
6.894540,0.0217,0.0047,-0.0954,0.098
6.899520,0.0541,-0.2006,0.1374,0.249
6.903832,-0.0134,-0.1240,0.2615,0.290
6.908162,0.0120,0.1775,-0.0809,0.195
6.913367,-0.1036,-0.2146,-0.1241,0.269
6.918033,-0.0612,0.0423,-0.0392,0.084
6.922607,0.0240,0.0075,0.0022,0.025
6.927643,0.1046,0.0113,0.0550,0.119
6.933272,-0.0002,0.1859,-0.1210,0.222
6.937370,0.0765,0.1432,-0.1344,0.211
6.942093,-0.0349,-0.1034,-0.0955,0.145
6.947033,-0.0292,0.1054,-0.0094,0.110
6.952178,0.0386,0.0017,-0.0404,0.056
6.956843,-0.0063,-0.0159,-0.0332,0.037
6.961363,-0.0415,-0.0785,0.0739,0.116
6.966615,-0.0269,-0.0433,0.0877,0.101
6.971205,0.0606,-0.3408,0.1374,0.372
6.976853,-0.0234,-0.1563,0.0966,0.185
6.980698,-0.0208,0.1526,-0.0674,0.168
6.986647,0.0510,0.0341,-0.0329,0.070
6.991815,-0.0086,-0.0668,0.0061,0.068
6.995132,0.0627,-0.0791,0.0784,0.128
7.000019,0.0838,-0.0247,0.0436,0.098
7.005501,0.0455,-0.0443,0.0758,0.099
7.009693,0.1052,-0.0803,0.1081,0.171
7.014941,0.1241,-0.0209,0.0715,0.145
7.019521,0.1121,-0.1020,0.0901,0.176
7.026597,0.0409,-0.0543,0.0849,0.109
7.030236,0.0536,-0.0448,0.0586,0.091
7.034894,0.0708,-0.0236,0.0257,0.079
7.038763,0.0524,-0.0072,0.0120,0.054
7.044105,-0.0015,-0.0290,0.0035,0.029
7.048860,0.0473,-0.0434,0.0235,0.068
7.053436,0.0746,-0.0315,0.0152,0.082
7.058538,0.0258,0.0777,-0.0188,0.084
7.063482,0.0747,-0.0276,0.0308,0.085
7.068175,0.0235,-0.0751,0.0257,0.083
7.073070,0.0103,-0.0249,0.0279,0.039
7.077892,0.0351,-0.0985,0.0470,0.115
7.082199,-0.0141,-0.0648,0.0781,0.102
7.087410,-0.0059,0.1040,-0.3349,0.351
7.092326,-0.1981,-0.0802,-0.3245,0.389
7.096897,0.0833,0.0552,-0.0007,0.100
7.101469,0.2273,-0.5370,0.0286,0.584
7.106821,-0.2070,0.3477,0.1366,0.427
7.111867,0.3033,-0.1826,0.3764,0.517
7.116151,0.1017,-0.4331,0.5623,0.717
7.121345,-0.0746,0.2302,0.4074,0.474
7.126884,0.0665,-0.1947,0.1373,0.247
7.130356,0.2525,-0.1599,-0.0950,0.314
7.135553,-0.1089,0.4253,-0.3595,0.567
7.140392,-0.0930,0.0700,-0.3016,0.323
7.145627,-0.0444,-0.1614,-0.1259,0.209
7.151043,-0.1151,0.0981,-0.1464,0.211
7.154444,0.0903,-0.0813,0.1180,0.169
7.160111,0.0878,-0.0765,0.0522,0.128
7.164754,0.2422,0.0163,-0.1224,0.272
7.168984,-0.0792,-0.0508,-0.3293,0.342
7.175074,-0.2323,0.5330,-0.1501,0.600
7.178695,0.0693,-0.3196,0.1558,0.362
7.183467,0.0976,-0.1681,0.0386,0.198
7.188275,0.0256,-0.0346,-0.0158,0.046
7.193185,0.0609,-0.0850,-0.0154,0.106
7.198801,0.0463,-0.3249,0.1372,0.356
7.203777,-0.0145,0.5765,-0.1773,0.603
7.207966,0.1440,-0.9915,0.1569,1.014
7.213734,-0.4049,0.1645,0.1297,0.456
7.218001,0.1493,0.1980,0.3362,0.418
7.222632,-0.1556,0.2716,-0.1076,0.331
7.227280,0.4448,-0.3391,0.1598,0.582
7.231837,-0.0162,-0.2300,-0.0737,0.242
7.237691,-0.1474,0.4625,-0.1530,0.509
7.242012,-0.1989,0.2731,0.0655,0.344
7.246926,0.1303,-0.1116,0.0394,0.176
7.251614,0.1632,-0.0892,0.1186,0.221
7.257015,-0.1601,0.5669,-0.4130,0.719
7.261188,-0.0851,0.0991,-0.0973,0.163
7.266719,0.0148,-0.5311,-0.0716,0.536
7.271331,0.0186,-0.1567,0.2557,0.300
7.276393,0.0223,-0.3100,0.3240,0.449
7.280779,0.0758,-0.3505,0.1614,0.393
7.285502,0.1406,-0.3883,0.1809,0.451
7.289931,0.1502,-0.0767,0.1460,0.223
7.296669,-0.0251,0.1731,0.0169,0.176
7.300556,-0.0586,0.2594,-0.1083,0.287
7.304878,0.0154,0.1743,-0.2040,0.269
7.310873,-0.0698,0.1873,-0.0442,0.205
7.315010,-0.0594,0.1978,-0.2326,0.311
7.319243,0.0132,0.1300,-0.0824,0.155
7.325601,0.0312,0.2363,0.0380,0.241
7.329198,-0.0142,0.2613,-0.0248,0.263
7.334934,-0.1707,0.2813,-0.2481,0.412
7.339097,-0.0551,0.2229,-0.0728,0.241
7.344047,-0.0731,0.1388,-0.1445,0.213
7.348073,0.1856,0.1983,0.2004,0.338
7.352995,-0.0303,0.0365,-0.0630,0.079
7.357702,-0.0071,0.0896,-0.0921,0.129
7.362786,0.0375,0.0354,-0.0261,0.058
7.367237,0.0633,-0.0015,-0.0085,0.064
7.372307,0.0273,0.0948,-0.0313,0.103
7.378134,-0.0184,0.0359,-0.0828,0.092
7.383487,-0.0163,-0.0226,-0.0624,0.068
7.387208,-0.0475,-0.0189,-0.1254,0.135
7.392695,0.0589,-0.0699,-0.0005,0.091
7.397586,0.0837,-0.1252,0.0781,0.170
7.401702,0.0555,-0.0853,-0.0339,0.107
7.406436,0.0701,-0.1170,-0.0146,0.137
7.411746,-0.0201,-0.0441,-0.0526,0.071
7.417893,0.0234,0.0022,0.0141,0.027
7.421770,-0.0121,-0.0969,-0.0765,0.124
7.426921,0.0020,-0.0932,-0.0833,0.125
7.430300,0.0111,-0.0588,-0.0167,0.062
7.436121,0.0225,-0.0816,-0.0196,0.087
7.441297,0.0170,-0.0591,0.0062,0.062
7.445033,0.0185,-0.0607,-0.0136,0.065
7.449619,0.0531,-0.0693,-0.0022,0.087
7.455583,0.0258,-0.0921,0.0089,0.096
7.460328,0.0819,0.0111,-0.0251,0.086
7.465544,-0.0078,-0.0102,-0.0638,0.065
7.469329,0.0076,-0.0384,-0.0141,0.042
7.477365,-0.0031,-0.0236,-0.0102,0.026
7.479594,-0.0043,-0.0280,-0.0252,0.038
7.484019,-0.0153,-0.0086,-0.0329,0.037
7.489212,0.0141,-0.0084,-0.0146,0.022
7.493633,0.0004,-0.0462,-0.0294,0.055
7.498374,-0.0180,-0.0031,-0.0158,0.024
7.503665,0.0254,-0.0315,0.0119,0.042
7.508434,0.0139,-0.0051,-0.0128,0.020
7.513749,0.0237,-0.0026,-0.0396,0.046
7.518079,0.0169,-0.0073,-0.0496,0.053
7.522344,0.0195,-0.0072,0.0188,0.028
7.527076,0.0128,-0.0119,-0.0178,0.025
7.532660,0.0274,-0.0545,0.0411,0.074
7.536531,0.0037,-0.0160,-0.0313,0.035
7.541899,0.0086,-0.0325,-0.0364,0.050
7.547876,0.0324,-0.0038,0.0202,0.038
7.551148,0.0036,-0.0419,-0.0234,0.048
7.556131,-0.0299,-0.0250,-0.0595,0.071
7.560739,-0.0229,-0.0131,-0.0429,0.050
7.565268,-0.0232,-0.0179,-0.0097,0.031
7.570280,-0.0069,0.0011,-0.0120,0.014
7.576074,0.0093,0.0081,-0.0261,0.029
7.579967,0.0183,0.0056,-0.0421,0.046
7.584727,0.0224,-0.0135,-0.0056,0.027
7.590239,0.0098,-0.0135,-0.0026,0.017
7.594920,-0.0004,-0.0087,-0.0325,0.034
7.599670,0.0109,-0.0087,-0.0529,0.055
7.604719,0.0340,-0.0086,-0.0207,0.041
7.610369,0.0117,-0.0086,-0.0242,0.028
7.614954,0.0132,-0.0181,0.0034,0.023
7.618787,0.0385,-0.0085,-0.0237,0.046
7.624778,0.0137,0.0129,-0.0506,0.054
7.630211,-0.0111,0.0032,-0.0963,0.097
7.633583,-0.0550,0.0220,-0.1107,0.126
7.638448,-0.0466,0.0026,-0.1060,0.116
7.643939,-0.0552,-0.0168,-0.0848,0.103
7.648182,-0.0662,-0.0360,-0.0423,0.086
7.652737,-0.0367,-0.0075,-0.0001,0.038
7.658051,-0.0192,-0.0078,0.0322,0.038
7.662617,0.0458,-0.0127,0.0831,0.096
7.667639,0.0439,-0.0366,0.0980,0.113
7.672101,0.0447,-0.0483,0.1082,0.127
7.676900,0.0576,0.0090,0.0472,0.075
7.682151,0.1063,-0.0244,0.1101,0.155
7.686575,0.0764,-0.0004,0.0420,0.087
7.691355,0.0660,0.0045,0.0266,0.071
7.697079,0.0438,-0.0145,-0.0128,0.048
7.701678,0.0265,-0.0025,-0.0069,0.028
7.705932,0.0117,-0.0048,-0.0747,0.076
7.712736,-0.0410,-0.0309,-0.0473,0.070
7.716324,-0.0672,-0.0070,-0.0226,0.071
7.720725,-0.0480,-0.0165,-0.0315,0.060
7.726753,-0.0361,-0.0022,0.0093,0.037
7.730289,0.0162,0.0144,-0.0359,0.042
7.736469,0.0113,0.0048,0.0285,0.031
7.741118,0.0493,0.0166,-0.0171,0.055
7.744842,0.0753,-0.0238,0.0421,0.089
7.750210,0.0274,-0.0117,0.0009,0.030
7.754783,-0.0034,-0.0211,-0.0235,0.032
7.760501,0.0113,-0.0114,0.0213,0.027
7.765986,0.0330,-0.0184,0.0110,0.039
7.769614,0.1069,-0.0158,0.0078,0.108
7.775667,0.0355,0.0462,-0.0117,0.059
7.778536,0.0025,0.0720,-0.1070,0.129
7.784411,0.0269,-0.0424,-0.0306,0.059
7.789163,-0.0083,0.0032,-0.0167,0.019
7.793538,-0.0649,-0.0182,-0.0479,0.083
7.798484,-0.0332,-0.0275,-0.0100,0.044
7.802897,0.0078,-0.0272,0.0276,0.040
7.808087,-0.0321,-0.0198,0.0342,0.051
7.813398,-0.0075,0.0565,-0.0375,0.068
7.818283,0.0170,-0.0555,0.0075,0.058
7.822113,-0.0036,-0.0311,0.0423,0.053
7.827381,-0.0405,-0.0971,0.0624,0.122
7.832159,-0.1104,0.0154,-0.0793,0.137
7.836718,-0.0471,0.0248,-0.1201,0.131
7.841626,-0.0700,0.0341,-0.1278,0.150
7.847570,0.0215,-0.0208,0.0449,0.054
7.850800,-0.0564,-0.0207,-0.0001,0.060
7.856384,0.0470,0.0483,-0.0402,0.079
7.861141,0.0809,-0.0470,-0.0204,0.096
7.866274,0.0291,-0.0133,0.0132,0.035
7.870250,0.0371,0.0035,0.0891,0.097
7.876636,0.0618,-0.0107,0.0459,0.078
7.880066,0.0344,0.0656,0.0149,0.076
7.885441,0.1046,0.0415,0.0365,0.118
7.890913,0.1031,-0.0465,0.1056,0.155
7.894796,0.0398,-0.0316,-0.0040,0.051
7.899538,0.0674,0.0330,0.0062,0.075
7.904956,0.0709,0.0045,-0.0097,0.072
7.909105,0.1029,0.0047,0.0172,0.104
7.914987,0.0085,0.0144,-0.0818,0.083
7.919191,0.0145,0.0240,-0.0708,0.076
7.924328,-0.0153,-0.0023,-0.0911,0.092
7.928369,-0.0119,0.0429,-0.0565,0.072
7.933510,-0.0752,-0.0121,-0.0863,0.115
7.938208,-0.0146,-0.0168,0.0075,0.023
7.943380,0.0050,-0.0120,0.0079,0.015
7.947696,-0.0158,0.0118,0.0298,0.036
7.952538,0.0326,0.0094,0.0633,0.072
7.958552,0.0403,-0.0144,0.0942,0.103
7.963265,0.0243,-0.0048,0.0607,0.066
7.966850,0.0179,-0.0047,0.0419,0.046
7.972204,-0.0360,-0.0046,-0.0028,0.036
7.977432,0.0128,-0.0164,0.0074,0.022
7.981292,0.0209,0.0147,-0.0013,0.026
7.986363,0.0149,-0.0090,-0.0028,0.018
7.991741,-0.0030,0.0007,0.0099,0.010
7.996043,-0.0351,-0.0015,-0.0131,0.038
8.000381,-0.0124,-0.0228,0.0139,0.029
8.006971,-0.0113,-0.0225,-0.0185,0.031
8.010751,0.0208,-0.0127,-0.0030,0.025
8.015916,0.0099,0.0042,-0.0089,0.014
8.020295,0.0300,0.0115,-0.0027,0.032
8.025864,0.0119,-0.0098,0.0534,0.056
8.030560,0.0272,0.0071,0.0216,0.035
8.036066,0.0140,-0.0306,0.0425,0.054
8.039679,-0.0111,-0.0230,0.0516,0.058
8.045621,-0.0337,-0.0368,0.0346,0.061
8.049837,-0.0109,-0.0219,0.0252,0.035
8.054799,0.0164,-0.0166,0.0182,0.030
8.059880,0.0199,0.0124,-0.0266,0.035
8.064741,0.0114,0.0031,-0.0094,0.015
8.068756,-0.0162,0.0010,0.0029,0.016
8.074870,-0.0460,0.0107,-0.0917,0.103
8.079137,-0.0639,0.0156,-0.1025,0.122
8.083371,-0.0413,0.0014,-0.0419,0.059
8.088180,-0.0118,-0.0102,0.0180,0.024
8.093079,0.0295,0.0019,0.0108,0.031
8.097549,0.0421,-0.0168,0.0345,0.057
8.102710,0.0381,0.0121,-0.0036,0.040
8.107242,0.0319,-0.0115,-0.0513,0.061
8.112426,0.0187,0.0245,-0.0512,0.060
8.117326,0.0224,0.0270,0.0151,0.038
8.122231,0.0358,0.0081,-0.0001,0.037
8.126955,0.0944,0.0203,-0.0247,0.100
8.131755,0.0720,0.0206,-0.0064,0.075
8.137435,0.0333,0.0185,-0.0048,0.038
8.140985,0.0089,-0.0074,-0.0009,0.012
8.146835,-0.0271,-0.0236,-0.0020,0.036
8.151288,-0.0463,-0.0159,0.0040,0.049
8.155993,-0.0227,-0.0107,-0.0422,0.049
8.161325,-0.0232,-0.0292,-0.0593,0.070
8.165593,-0.0548,-0.0216,-0.0788,0.098
8.170776,-0.0936,-0.0189,-0.0267,0.099
8.176004,-0.0635,-0.0447,0.0464,0.090
8.179759,-0.0385,-0.0276,-0.0163,0.050
8.184763,-0.0091,0.0107,-0.0476,0.050
8.189141,-0.0013,0.0012,-0.0953,0.095
8.194621,-0.0151,-0.0035,-0.0738,0.075
8.199536,-0.0313,-0.0320,-0.0407,0.060
8.204303,-0.0093,0.0039,-0.0030,0.010
8.209433,0.0151,-0.0103,0.0224,0.029
8.214593,0.0226,-0.0031,0.0287,0.037
8.219357,0.0064,-0.0101,0.0350,0.037
8.224240,-0.0263,-0.0360,0.0484,0.066
8.228112,-0.0183,-0.0332,0.0784,0.087
8.232986,-0.0295,-0.0281,0.0892,0.098
8.237989,0.0024,-0.0206,0.0454,0.050
8.242701,0.0101,0.0129,-0.0053,0.017
8.247530,0.0156,-0.0013,0.0017,0.016
8.252652,-0.0028,-0.0106,-0.0153,0.019
8.257615,-0.0140,-0.0080,-0.0084,0.018
8.261839,-0.0179,0.0017,-0.0396,0.043
8.267632,-0.0220,-0.0173,-0.0611,0.067
8.271869,-0.0119,-0.0432,0.0127,0.047
8.276671,-0.0234,-0.0333,0.0479,0.063
8.282464,-0.0110,-0.0140,0.0377,0.042
8.286713,-0.0011,-0.0043,-0.0199,0.020
8.291082,-0.0318,0.0004,-0.0249,0.040
8.296950,-0.0530,-0.0115,-0.0015,0.054
8.301318,-0.0312,-0.0044,-0.0377,0.049
8.305685,-0.0097,0.0122,-0.0427,0.045
8.310428,-0.0146,-0.0023,-0.0336,0.037
8.317057,-0.0433,-0.0048,-0.0437,0.062
8.319842,-0.0551,0.0211,-0.0349,0.069
8.326780,-0.0098,-0.0006,-0.0264,0.028
8.329728,-0.0148,0.0086,-0.0395,0.043
8.334854,-0.0054,0.0392,-0.0645,0.076
8.339979,-0.0150,0.0030,-0.0420,0.045
8.344406,-0.0103,-0.0139,-0.0059,0.018
8.349238,0.0183,-0.0046,0.0320,0.037
8.354907,0.0065,-0.0024,-0.0016,0.007
8.358414,0.0113,0.0092,-0.0420,0.044
8.364054,0.0067,-0.0077,-0.0394,0.041
8.369163,0.0188,0.0016,-0.0181,0.026
8.373299,-0.0025,-0.0058,0.0245,0.025
8.378081,-0.0284,0.0011,-0.0331,0.044
8.382742,0.0100,0.0008,-0.0286,0.030
8.387333,0.0102,-0.0208,0.0140,0.027
8.392928,0.0057,-0.0161,0.0231,0.029
8.397531,0.0130,0.0028,0.0275,0.031
8.403620,0.0395,0.0050,0.0296,0.050
8.407289,0.0467,-0.0095,0.0129,0.049
8.412379,-0.0032,0.0047,0.0152,0.016
8.416769,0.0234,-0.0288,-0.0155,0.040
8.421816,-0.0169,0.0022,-0.0125,0.021
8.427530,-0.0212,0.0305,-0.0212,0.043
8.431522,0.0600,-0.0411,0.0272,0.078
8.437395,0.0384,0.0138,-0.0028,0.041
8.442164,0.0315,0.0113,0.0269,0.043
8.446226,0.0675,-0.0315,0.0399,0.084
8.450424,-0.0225,0.0353,-0.0136,0.044
8.457298,0.0426,-0.0052,-0.0309,0.053
8.460626,0.0432,-0.0525,-0.0410,0.079
8.466064,0.0226,0.1072,-0.0841,0.138
8.469839,0.0401,0.0210,-0.1027,0.112
8.476318,-0.0186,-0.0288,0.1024,0.108
8.479642,-0.0413,0.0240,-0.0193,0.051
8.484353,0.0459,-0.1230,0.2689,0.299
8.489358,-0.0720,0.0588,0.1604,0.185
8.495598,0.0412,-0.0933,0.3784,0.392
8.499133,-0.1102,-0.1040,0.0461,0.158
8.504014,-0.0751,0.1084,0.0846,0.157
8.509550,-0.0522,-0.0607,-0.1244,0.148
8.513792,-0.0868,0.0326,-0.1822,0.204
8.518418,-0.0122,0.0443,-0.1757,0.182
8.523118,-0.0118,-0.0058,-0.0955,0.096
8.528178,-0.0235,0.0062,0.0243,0.034
8.532574,0.0101,-0.0413,0.0622,0.075
8.537316,-0.0043,0.0112,0.0400,0.042
8.542010,-0.0163,-0.0056,-0.0959,0.097
8.548374,-0.0663,0.0560,-0.2357,0.251
8.551782,-0.0114,0.0554,-0.1490,0.159
8.556783,0.0145,0.0358,-0.0916,0.099
8.561843,0.0070,-0.0003,-0.0255,0.026
8.566461,0.0139,-0.0052,0.0021,0.015
8.571487,0.0089,-0.0124,-0.0084,0.017
8.576921,0.0112,0.0255,-0.0236,0.037
8.581539,-0.0199,0.0275,-0.0244,0.042
8.585858,-0.0057,-0.0014,0.0056,0.008
8.590742,-0.0105,0.0056,0.0164,0.020
8.597041,-0.0059,0.0030,-0.0015,0.007
8.600597,-0.0418,0.0170,-0.0668,0.081
8.604987,-0.0325,0.0118,-0.0724,0.080
8.610570,-0.0257,-0.0100,-0.0708,0.076
8.615858,-0.0097,0.0017,-0.0072,0.012
8.620078,-0.0724,-0.1292,-0.0715,0.164
8.625497,-1.1131,-0.4349,-0.4185,1.266
8.630124,-0.1479,-0.6575,-0.4876,0.832
8.635026,0.1794,-0.0899,1.2148,1.231
8.639136,-0.3228,1.4450,-1.0331,1.805
8.645097,0.3840,-0.0294,-0.4611,0.601
8.648863,0.1617,-0.8011,-0.2100,0.844
8.653829,-0.3394,0.4326,-0.1691,0.575
8.659357,0.0144,-0.2811,0.3892,0.480
8.663396,0.2217,-0.0270,0.4900,0.538
8.668232,0.1230,0.0944,-0.0012,0.155
8.673536,0.0387,-0.1154,-0.0444,0.130
8.678026,-0.0857,-0.0909,-0.0087,0.125
8.683007,-0.0759,0.0926,-0.0255,0.122
8.687603,-0.0021,-0.0531,-0.0085,0.054
8.692410,0.0305,-0.0005,0.1036,0.108
8.697463,0.0370,-0.0362,0.1033,0.115
8.702872,0.0839,-0.0430,0.1696,0.194
8.706592,0.0381,0.0216,0.1196,0.127
8.713256,0.0210,-0.0069,0.0248,0.033
8.717413,0.0090,0.0004,0.0333,0.034
8.721320,-0.0076,0.0149,0.0180,0.025
8.726318,0.0496,-0.0372,0.1288,0.143
8.731267,0.0065,-0.1079,0.0965,0.145
8.736615,0.0256,0.0405,0.1096,0.120
8.740560,0.0255,0.0096,0.0419,0.050
8.746661,0.0041,0.0406,-0.0921,0.101
8.750368,-0.0123,0.0381,-0.1540,0.159
8.755431,-0.0479,-0.0096,-0.1967,0.203
8.760326,-0.0716,0.0309,-0.1036,0.130
8.765463,-0.0380,0.0189,-0.0092,0.043
8.770133,0.0026,-0.0192,-0.0174,0.026
8.776138,0.0095,0.0143,-0.3700,0.370
8.779175,-0.1336,0.1066,-0.3408,0.381
8.784565,-0.0381,0.0391,0.0039,0.055
8.789195,-0.0572,-0.0183,0.0633,0.087
8.794506,0.0261,-0.0396,0.0911,0.103
8.799563,0.0806,-0.0369,0.1207,0.150
8.804173,0.1375,0.0466,0.2092,0.255
8.809155,0.0897,-0.0155,0.1493,0.175
8.812841,-0.0170,0.0488,0.1014,0.114
8.818363,0.0555,-0.0893,0.0276,0.109
8.822702,0.0181,0.0231,-0.2262,0.228
8.827721,-0.0479,0.0608,-0.3121,0.322
8.833270,-0.0589,0.0482,-0.0936,0.121
8.837273,-0.0411,0.0405,-0.0817,0.100
8.842386,-0.0000,0.0636,-0.1129,0.130
8.847346,0.0383,-0.0038,-0.1271,0.133
8.851649,-0.0068,-0.0372,0.0584,0.070
8.856818,-0.0159,-0.0514,0.1407,0.151
8.861648,0.0132,-0.0179,0.0634,0.067
8.866578,0.0016,-0.0085,0.0056,0.010
8.871072,0.0256,-0.0158,0.0194,0.036
8.876338,-0.0339,-0.0445,0.0305,0.064
8.880910,-0.0456,0.0029,0.1176,0.126
8.886029,-0.0453,0.0144,-0.0145,0.050
8.890435,-0.0550,0.0043,-0.0434,0.070
8.895025,-0.0697,-0.0391,-0.0272,0.084
8.899742,-0.0773,0.0081,-0.0038,0.078
8.906227,-0.0444,0.0122,0.0147,0.048
8.910164,0.0550,0.0116,0.0189,0.059
8.914796,0.0851,0.0609,-0.0315,0.109
8.919168,0.0606,0.0149,0.0227,0.066
8.925751,0.0814,-0.0046,0.0574,0.100
8.929318,-0.0096,-0.0073,-0.0078,0.014
8.934228,0.0118,0.0137,-0.0082,0.020
8.938679,0.0046,-0.0033,0.0250,0.026
8.945016,0.0664,-0.0178,0.1199,0.138
8.949053,0.0398,-0.0487,0.1644,0.176
8.952932,0.0277,-0.0367,0.1303,0.138
8.957843,0.0064,0.0062,0.0160,0.018
8.963580,0.0041,-0.0082,0.0023,0.009
8.967405,-0.0171,-0.0107,0.0697,0.073
8.972556,0.0166,-0.0059,0.0915,0.093
8.977787,0.0121,-0.0178,0.0823,0.085
8.982414,0.0148,0.0179,0.0162,0.028
8.987303,0.0056,0.0295,-0.0186,0.035
8.993267,0.0083,0.0102,-0.0317,0.034
8.997435,0.0204,0.0029,-0.0352,0.041
9.001867,-0.0033,0.0265,-0.0742,0.079
9.006691,-0.0365,0.0450,-0.1037,0.119
9.011832,-0.0772,0.0182,-0.1304,0.153
9.016414,-0.1703,-0.0750,-0.0669,0.198
9.022207,-0.0815,0.1294,-0.0824,0.174
9.026928,0.0851,-0.0215,-0.0356,0.095
9.031640,0.0600,-0.0501,0.0061,0.078
9.036376,0.0235,-0.0072,0.0833,0.087
9.040516,0.0635,-0.0144,0.1337,0.149
9.045522,0.0320,-0.0168,0.1129,0.119
9.050557,0.0173,-0.0358,0.0543,0.067
9.056466,-0.0375,0.0712,0.0011,0.081
9.060704,0.0292,-0.1075,0.0743,0.134
9.066312,0.0170,0.0311,0.0426,0.055
9.069307,-0.0214,0.0639,-0.0888,0.111
9.076214,0.0024,-0.1195,0.0445,0.128
9.079425,-0.1604,0.1833,-0.0581,0.250
9.084522,-0.2604,0.4905,-0.3569,0.660
9.088868,0.0405,-0.1690,-0.0458,0.180
9.093600,0.1957,-0.4836,0.1160,0.534
9.099537,0.0862,-0.0407,0.1028,0.140
9.103757,0.2611,-0.1021,0.5413,0.610
9.108112,0.0717,0.0247,0.1544,0.172
9.113681,0.0969,0.2024,-0.3645,0.428
9.119101,-0.3444,-0.0395,-0.5357,0.638
9.123174,0.0402,-0.0535,0.7624,0.765
9.127196,0.0687,-0.1170,0.3103,0.339
9.132677,0.0633,0.1237,-0.2263,0.266
9.138872,-0.0250,0.0371,-0.3465,0.349
9.142009,0.0016,-0.0107,0.0332,0.035
9.147962,-0.1318,0.0153,-0.2551,0.288
9.152221,-0.0435,0.0648,0.0145,0.079
9.156868,0.0493,-0.0261,0.0300,0.063
9.161560,0.0584,0.0380,0.0619,0.093
9.166383,-0.0303,-0.0076,-0.1037,0.108
9.170915,-0.0660,0.0467,-0.0925,0.123
9.176967,-0.0208,-0.0347,-0.0434,0.059
9.180716,-0.0212,0.0056,-0.0563,0.060
9.186233,-0.0123,-0.0304,-0.0003,0.033
9.190119,-0.0010,-0.0305,0.0696,0.076
9.196477,0.0030,0.0027,0.0488,0.049
9.199926,0.0118,-0.0214,0.0328,0.041
9.204952,-0.0316,-0.0097,0.0097,0.034
9.209789,-0.0202,-0.0005,-0.0253,0.032
9.216242,-0.0182,0.0347,-0.0696,0.080
9.219517,-0.0186,0.0435,-0.0330,0.058
9.225435,-0.0047,0.0190,-0.0064,0.021
9.229043,0.0189,0.0304,-0.0276,0.045
9.234633,0.0071,0.1105,-0.0846,0.139
9.239174,-0.0592,0.0903,-0.1129,0.156
9.244052,-0.1513,0.1176,-0.1675,0.255
9.248627,-0.1292,-0.0953,-0.1052,0.192
9.253585,-0.0366,-0.0524,-0.1219,0.138
9.258355,0.0576,-0.1239,0.0210,0.138
9.262981,0.2083,-0.0213,0.0918,0.229
9.267714,0.2537,-0.1094,0.3185,0.422
9.272769,0.1612,-0.0566,0.3135,0.357
9.277263,0.0385,0.0194,0.0712,0.083
9.282974,-0.0240,-0.0025,-0.0671,0.071
9.287353,-0.0408,0.0422,-0.0832,0.102
9.292682,0.0138,0.0651,-0.1349,0.150
9.296809,0.0302,0.0809,-0.0816,0.119
9.301905,0.0322,0.0394,-0.0670,0.084
9.306512,-0.0134,0.0007,-0.0596,0.061
9.311756,-0.0827,-0.0117,-0.0786,0.115
9.316939,-0.1139,-0.0123,-0.0832,0.142
9.321275,-0.1022,0.0014,-0.0592,0.118
9.326308,-0.0670,-0.0183,-0.0425,0.081
9.330919,-0.0486,0.0026,0.0097,0.050
9.337230,-0.0327,-0.0290,0.0543,0.070
9.340344,-0.0311,0.0038,0.0392,0.050
9.345110,-0.0130,0.0316,0.0053,0.035
9.350168,0.0216,0.0568,-0.0925,0.111
9.356251,0.0394,0.0391,-0.1182,0.131
9.366857,0.0191,0.0286,-0.0653,0.074
9.367450,-0.0272,0.0064,-0.0294,0.041
9.369451,-0.0614,0.0081,-0.0150,0.064
9.374956,-0.0242,-0.0021,0.0066,0.025
9.379182,0.0938,-0.0121,0.0448,0.105
9.384206,0.0898,0.0160,0.0568,0.107
9.388519,0.0765,-0.0415,0.1400,0.165
9.393654,0.0469,-0.0296,0.1111,0.124
9.398843,0.0461,-0.0345,0.1061,0.121
9.402833,0.0384,-0.0060,0.0465,0.061
9.407962,-0.0002,0.0246,-0.0103,0.027
9.413632,-0.0029,0.0264,0.0140,0.030
9.417877,-0.0032,-0.0027,0.0050,0.007
9.422632,-0.0440,-0.0196,-0.0159,0.051
9.428430,-0.0510,0.0134,-0.0152,0.055
9.432177,-0.0368,0.0106,-0.0977,0.105
9.437355,0.0082,-0.0136,-0.0822,0.084
9.442577,0.0436,0.0313,-0.0239,0.059
9.446947,0.0243,0.0213,-0.0017,0.032
9.451744,0.0290,0.0186,0.0111,0.036
9.457273,0.0386,-0.0173,0.0475,0.064
9.462163,0.0269,-0.0054,0.0434,0.051
9.467593,-0.0038,-0.0173,0.0728,0.075
9.470907,-0.0318,-0.0171,0.0739,0.082
9.476257,0.0021,-0.0193,0.0894,0.091
9.482475,-0.0071,-0.0120,0.0432,0.045
9.485781,-0.0304,-0.0332,0.0145,0.047
9.489998,-0.0086,-0.0257,0.0267,0.038
9.495490,0.0059,-0.0253,0.0889,0.093
9.499794,0.0323,-0.0248,0.1224,0.129
9.505439,0.0538,-0.0338,0.1299,0.145
9.509293,0.0302,0.0001,0.0781,0.084
9.514788,0.0520,-0.0019,0.0481,0.071
9.518829,0.0285,0.0080,-0.0077,0.031
9.524694,-0.0043,-0.0154,-0.0297,0.034
9.529146,-0.0132,-0.0054,-0.0017,0.014
9.533689,0.0185,0.0022,-0.0333,0.038
9.538351,0.0168,0.0477,-0.0458,0.068
9.544157,0.0486,0.0098,-0.0343,0.060
9.548229,-0.0056,0.0149,-0.0660,0.068
9.552783,-0.0262,-0.0158,-0.0382,0.049
9.558121,-0.0632,0.0108,-0.0559,0.085
9.563002,-0.0503,-0.0152,-0.0259,0.059
9.567723,-0.0518,-0.0053,0.0084,0.053
9.572889,-0.0177,0.0187,-0.0359,0.044
9.577585,-0.0075,-0.0120,0.0249,0.029
9.582947,-0.1595,-0.0047,-0.0386,0.164
9.586847,-0.0178,0.0501,0.0908,0.105
9.591429,0.0943,-0.0498,-0.0254,0.110
9.597752,0.0154,0.0149,-0.0528,0.057
9.601995,0.0394,-0.0301,0.0600,0.078
9.607014,0.0419,-0.0272,0.0937,0.106
9.611451,0.0041,0.0279,0.0178,0.033
9.616674,-0.0074,-0.0149,-0.0123,0.021
9.620512,-0.0189,-0.0098,-0.0329,0.039
9.626028,-0.0279,0.0094,-0.0225,0.037
9.630200,-0.0347,-0.0024,-0.0454,0.057
9.636148,-0.0154,-0.0261,-0.0018,0.030
9.640239,-0.0129,-0.0424,-0.0014,0.044
9.644845,0.0062,-0.0064,0.0060,0.011
9.649958,-0.0106,-0.0063,-0.0009,0.012
9.654913,-0.0250,0.0079,-0.0197,0.033
9.659321,-0.0179,-0.0159,-0.0077,0.025
9.664821,-0.0129,0.0293,-0.0264,0.042
9.669240,-0.0126,0.0743,-0.0213,0.078
9.674498,0.1204,-0.0237,0.0120,0.123
9.679583,-0.0133,-0.0448,-0.0476,0.067
9.683303,0.0541,0.1409,-0.0238,0.153
9.688250,0.0179,-0.3020,0.0496,0.307
9.693238,-0.3009,0.2179,-0.2292,0.436
9.698375,-0.0468,-0.0476,0.0095,0.067
9.703768,0.0056,-0.0117,0.0066,0.015
9.707471,0.0007,0.0097,-0.0343,0.036
9.713764,0.0314,-0.0189,0.0773,0.086
9.718131,0.0502,-0.0093,0.1336,0.143
9.722863,0.0404,-0.0329,0.1064,0.118
9.726896,-0.0005,-0.0089,0.0606,0.061
9.732337,-0.0507,-0.0279,0.0011,0.058
9.737454,-0.0339,0.0270,0.0040,0.043
9.741312,0.0088,-0.0231,-0.0096,0.027
9.746870,-0.0225,0.0412,-0.0278,0.055
9.751793,-0.0084,-0.0089,0.0352,0.037
9.758431,0.0246,-0.0063,0.0506,0.057
9.761221,0.0265,0.0081,0.0491,0.056
9.766708,0.0306,-0.0251,0.0432,0.059
9.770586,-0.0460,0.0203,-0.0269,0.057
9.775922,-0.0508,0.0131,-0.0466,0.070
9.779951,-0.0317,0.0559,-0.1067,0.125
9.786243,-0.0104,-0.0063,-0.0905,0.091
9.790209,0.0035,0.0437,0.0374,0.058
9.795035,0.0320,0.0008,0.0217,0.039
9.800034,0.0031,0.0246,-0.0082,0.026
9.804846,-0.0375,0.0079,-0.0165,0.042
9.808913,-0.0088,0.0032,-0.0488,0.050
9.815073,-0.0041,0.0389,-0.0738,0.083
9.819635,-0.0160,0.0220,-0.0629,0.069
9.823866,-0.0182,0.0243,-0.0073,0.031
9.828237,-0.0057,0.0267,-0.0113,0.030
9.834095,0.0542,0.0076,0.0439,0.070
9.838476,0.0399,0.0078,-0.0034,0.041
9.843101,0.0235,-0.0158,0.0306,0.042
9.847745,0.0143,-0.0250,0.0429,0.052
9.853537,0.0123,-0.0222,0.0644,0.069
9.857548,-0.0089,-0.0313,0.0693,0.077
9.862752,-0.0181,-0.0001,-0.0496,0.053
9.867437,-0.0132,0.0071,-0.0560,0.058
9.872714,-0.0537,-0.0073,-0.1003,0.114
9.877008,-0.0561,-0.0168,-0.0828,0.101
9.882650,-0.0062,-0.0215,0.0367,0.043
9.886381,-0.0090,-0.0191,-0.0016,0.021
9.892352,-0.0000,-0.0001,0.0007,0.001
9.896938,0.0019,-0.0073,-0.0043,0.009
9.900873,0.0132,0.0305,-0.0474,0.058
9.906424,-0.0040,0.0159,-0.0592,0.061
9.911538,0.0096,0.0155,-0.0424,0.046
9.916094,0.0089,-0.0109,-0.0042,0.015
9.920364,0.0082,0.0033,0.0359,0.037
9.925988,0.0123,0.0007,0.0165,0.021
9.930293,-0.0170,-0.0138,0.0447,0.050
9.935597,-0.0340,-0.0091,-0.0223,0.042
9.939941,-0.0345,-0.0211,-0.0198,0.045
9.944425,-0.0325,0.0644,-0.0578,0.092
9.949568,-0.0494,0.0186,-0.0219,0.057
9.954721,-0.0377,0.0539,-0.1264,0.143
9.959452,-0.0217,-0.0347,-0.0045,0.041
9.964816,-0.0156,-0.0727,-0.0805,0.110
9.969134,0.0214,-0.0439,0.0984,0.110
9.973497,0.0224,0.0061,0.0789,0.082
9.978783,0.0282,-0.0298,0.0715,0.082
9.983580,-0.0016,0.0011,0.0024,0.003
9.988442,-0.0265,0.0080,-0.0042,0.028
9.993626,-0.0370,0.0077,-0.0131,0.040
9.998196,-0.0189,-0.0139,-0.0125,0.027
10.002402,0.0062,-0.0259,0.0381,0.046
10.007629,0.0099,0.0074,0.0123,0.017
10.013019,0.0421,0.0167,0.0129,0.047
10.018675,0.0314,0.0236,0.0159,0.042
10.022423,-0.0125,0.0066,-0.0002,0.014
10.027071,-0.0182,-0.0055,-0.0518,0.055
10.031688,0.0069,0.0134,-0.0387,0.042
10.036641,0.0249,-0.0082,0.0503,0.057
10.041094,0.0168,-0.0225,0.0365,0.046
10.046443,0.0040,-0.0081,0.0300,0.031
10.051438,0.0008,-0.0247,0.0427,0.049
10.056502,-0.0215,0.0063,0.0079,0.024
10.060564,-0.0224,0.0180,-0.0242,0.038
10.066836,-0.0305,-0.0155,0.0155,0.038
10.071463,-0.0291,-0.0344,0.0168,0.048
10.075653,-0.0062,-0.0034,0.0063,0.009
10.080349,-0.0073,-0.0081,0.0173,0.020
10.085571,0.0179,-0.0081,0.0234,0.031
10.089923,0.0190,-0.0129,-0.0205,0.031
10.095054,0.0013,0.0156,-0.0452,0.048
10.099566,-0.0021,0.0463,-0.0413,0.062
10.104431,-0.0103,-0.0088,-0.0733,0.075
10.109907,-0.0208,0.0314,-0.0861,0.094
10.114796,0.0068,-0.0141,-0.0350,0.038
10.118889,0.0033,-0.0071,-0.0129,0.015
10.124871,0.0046,0.0093,-0.0125,0.016
10.128092,-0.0108,-0.0171,-0.0146,0.025
10.133332,-0.0095,0.0065,-0.0359,0.038
10.138620,-0.0152,0.0061,-0.0191,0.025
10.142772,-0.0115,-0.0013,-0.0143,0.018
10.147449,-0.0149,0.0411,-0.0380,0.058
10.153335,0.0009,-0.0188,0.0264,0.032
10.157426,-0.0073,-0.0047,0.0286,0.030
10.162060,0.0107,0.0188,0.0118,0.025
10.166993,0.0168,-0.0290,0.0547,0.064
10.171442,0.0133,0.0233,-0.0048,0.027
10.176896,-0.0044,0.0181,-0.0400,0.044
10.181911,0.0209,-0.0178,0.0225,0.035
10.186552,0.0389,-0.0083,0.0300,0.050
10.191087,0.0284,-0.0012,-0.0079,0.029
10.196648,-0.0058,0.0082,-0.0596,0.060
10.201970,-0.0234,-0.0040,-0.0278,0.037
10.205481,-0.0242,-0.0326,-0.0011,0.041
10.212261,-0.0224,-0.0206,-0.0054,0.031
10.215071,0.0104,0.0198,-0.0073,0.024
10.220962,0.0215,0.0338,-0.0116,0.042
10.225376,0.0037,-0.0284,-0.0537,0.061
10.229869,-0.0212,-0.0070,0.0233,0.032
10.234756,-0.0316,-0.0095,-0.0166,0.037
10.239624,-0.0038,-0.0001,0.0151,0.016
10.244985,0.0048,-0.0097,0.0322,0.034
10.248790,0.0467,-0.0050,0.0517,0.070
10.254808,0.0598,-0.0193,0.0450,0.077
10.258497,0.0254,0.0093,0.0121,0.030
10.263812,0.0248,0.0021,0.0008,0.025
10.268266,0.0101,0.1184,0.0086,0.119
10.272870,-0.0024,-0.0630,0.0117,0.064
10.278531,-0.0289,-0.0103,0.0219,0.038
10.284456,-0.0124,0.0326,0.0036,0.035
10.287643,0.0016,-0.0342,0.0044,0.034
10.292523,-0.0131,0.0255,-0.0210,0.035
10.297799,0.0080,-0.0293,0.0443,0.054
10.303357,0.0076,-0.0242,0.0284,0.038
10.308498,-0.0071,0.0140,0.0315,0.035
10.312296,-0.0312,-0.0194,0.0036,0.037
10.317998,-0.0147,0.0188,-0.0430,0.049
10.322447,-0.0123,0.0234,-0.0587,0.064
10.326644,0.0806,0.1374,-0.0266,0.161
10.331466,0.1059,-0.0845,-0.1298,0.188
10.336829,-0.0521,-0.0030,-0.0351,0.063
10.341393,0.0078,-0.0123,0.1965,0.197
10.346713,0.0174,-0.0168,0.2340,0.235
10.350533,-0.0755,-0.0308,-0.0042,0.082
10.357043,-0.0729,0.0384,-0.1549,0.175
10.360501,0.0201,0.0002,-0.0600,0.063
10.366077,0.0676,0.0384,0.0390,0.087
10.370994,0.0530,0.0074,0.0588,0.079
10.375990,-0.0209,0.0170,0.0023,0.027
10.379885,-0.0111,-0.0115,-0.0180,0.024
10.386460,-0.0181,0.0006,-0.0238,0.030
10.389158,-0.0371,0.0174,-0.0057,0.041
10.395535,-0.0396,-0.0420,0.0360,0.068
10.399071,-0.0518,-0.0322,0.0036,0.061
10.404880,-0.0879,-0.0273,-0.0880,0.127
10.408771,-0.0407,0.0037,-0.0863,0.095
10.414496,-0.0038,0.0248,-0.0966,0.100
10.419122,-0.0386,0.0052,-0.1235,0.130
10.423412,-0.0160,0.0025,-0.0103,0.019
10.429387,0.0113,0.0094,-0.0310,0.034
10.434017,0.0248,0.0330,-0.0181,0.045
10.437632,0.1031,0.0376,0.0563,0.123
10.442532,0.1502,-0.0076,0.0375,0.155
10.447730,0.0566,-0.0454,0.1091,0.131
10.452343,0.0377,0.0121,0.0397,0.056
10.457446,0.0145,-0.0447,-0.0268,0.054
10.461580,0.0514,0.0558,-0.0404,0.086
10.467760,0.0975,-0.0226,-0.0302,0.105
10.472032,0.0673,0.0184,-0.0392,0.080
10.476397,-0.0058,0.0019,-0.0460,0.046
10.481160,-0.0668,-0.0003,-0.0100,0.067
10.486232,-0.1132,0.0022,-0.0455,0.122
10.491161,-0.0643,0.0046,-0.0476,0.080
10.496057,-0.0253,0.0071,0.0025,0.026
10.501415,-0.0080,-0.0071,0.0025,0.011
10.505743,-0.0171,-0.0236,0.0333,0.044
10.510205,-0.0189,-0.0114,0.0379,0.044
10.515962,0.0053,-0.0065,0.0377,0.039
10.520761,0.0294,-0.0205,0.0422,0.055
10.525250,-0.0012,-0.0250,0.0016,0.025
10.530246,-0.0365,-0.0176,-0.0387,0.056
10.535634,-0.0859,0.0396,-0.0692,0.117
10.539025,-0.0756,-0.0129,-0.0283,0.082
10.544485,-0.0393,-0.0009,-0.0115,0.041
10.549344,0.0133,-0.0009,-0.0161,0.021
10.555031,0.0133,0.0062,-0.0397,0.042
10.558999,0.0108,-0.0318,0.0130,0.036
10.563207,0.0322,0.0160,-0.0084,0.037
10.569062,0.0202,-0.0505,0.0180,0.057
10.574102,-0.0011,0.0140,-0.0034,0.014
10.577717,0.0301,-0.0263,-0.0080,0.041
10.583400,-0.0007,-0.0070,0.0063,0.009
10.588833,-0.0074,0.0026,-0.0174,0.019
10.592631,-0.0045,0.0170,-0.0600,0.063
10.597366,-0.0017,0.0122,-0.0288,0.031
10.603223,-0.0107,-0.0234,-0.0049,0.026
10.608025,-0.0006,0.0267,0.0212,0.034
10.612833,0.0260,-0.0185,0.0280,0.042
10.617592,0.0217,0.0079,0.0395,0.046
10.621968,0.0056,-0.0062,0.0272,0.028
10.626930,0.0038,-0.0298,0.0077,0.031
10.631105,-0.0098,0.0418,0.0170,0.046
10.636096,0.0102,0.0108,0.0191,0.024
10.641118,0.0278,0.0181,0.0306,0.045
10.646115,0.0072,0.0277,-0.0437,0.052
10.650194,0.0057,0.0015,-0.0271,0.028
10.657348,-0.0531,0.0206,-0.0865,0.104
10.660183,-0.1240,0.0299,-0.1074,0.167
10.666365,-0.1401,-0.0180,-0.0403,0.147
10.670712,-0.0511,-0.0179,0.0000,0.054
10.675980,0.1042,-0.0557,0.0993,0.154
10.679806,0.1469,-0.0384,0.0295,0.155
10.684511,0.0946,-0.0165,0.0454,0.106
10.689094,0.0502,0.0053,0.0113,0.052
10.694723,0.0180,0.0032,-0.0156,0.024
10.698686,-0.0258,-0.0013,-0.0587,0.064
10.704139,-0.0004,0.0323,-0.0302,0.044
10.708822,-0.0208,-0.0081,0.0198,0.030
10.713645,-0.0006,0.0017,0.0123,0.012
10.719167,-0.0066,-0.0029,0.0547,0.055
10.723871,-0.0053,0.0283,0.0752,0.081
10.728565,-0.0302,-0.0263,-0.0638,0.075
10.733389,-0.0120,0.0453,-0.0879,0.100
10.737502,0.0468,0.0453,-0.1166,0.134
10.742810,0.0340,-0.0331,-0.0929,0.104
10.747204,0.0019,-0.0136,0.0663,0.068
10.753057,-0.0633,-0.0393,0.1175,0.139
10.757230,-0.0710,-0.0245,0.1448,0.163
10.761866,0.0141,-0.0239,0.1078,0.111
10.767256,0.0226,-0.0163,0.0188,0.034
10.771139,0.0193,0.0436,-0.0719,0.086
10.776368,0.0042,0.0436,-0.0693,0.082
10.781594,-0.0132,0.0174,-0.0763,0.079
10.785810,-0.0115,0.0153,0.0283,0.034
10.791376,-0.0073,-0.0367,0.0110,0.039
10.796371,-0.0459,-0.0147,0.0296,0.057
10.800234,-0.0394,0.0167,-0.0302,0.052
10.806316,0.0314,0.0003,0.0083,0.032
10.810114,0.0257,-0.0087,0.0229,0.035
10.815038,0.0512,0.0275,0.0445,0.073
10.820037,0.0240,-0.0505,-0.0100,0.057
10.825073,-0.0221,-0.0093,0.0216,0.032
10.829525,-0.0035,-0.0182,0.0128,0.022
10.835642,0.0959,-0.0506,0.0564,0.122
10.840121,0.0429,0.0360,-0.0024,0.056
10.844178,0.0688,0.0056,0.0557,0.089
10.848921,0.0711,-0.0031,0.0492,0.087
10.853572,0.0118,0.0287,-0.0594,0.067
10.859869,0.0409,-0.0395,-0.0199,0.060
10.863651,-0.0083,0.0021,-0.0544,0.055
10.867813,-0.0144,0.0245,-0.0101,0.030
10.872618,0.0010,0.0252,-0.0041,0.026
10.879144,-0.0096,-0.0451,0.0352,0.058
10.883086,0.0108,-0.0674,0.0955,0.117
10.887164,0.0360,-0.0467,0.1985,0.207
10.892793,0.0564,-0.0379,0.1393,0.155
10.898544,0.0747,-0.0055,0.1255,0.146
10.902850,0.0313,-0.0539,0.0620,0.088
10.907493,-0.0306,-0.0639,0.1533,0.169
10.911602,0.0292,-0.0359,0.0016,0.046
10.918001,0.0103,-0.0034,-0.0117,0.016
10.921427,0.0703,0.0289,-0.0343,0.083
10.926516,0.0398,0.0017,-0.0334,0.052
10.931619,-0.0119,0.0078,-0.0494,0.051
10.936752,-0.0152,0.0116,-0.0604,0.063
10.940458,0.0245,0.0582,-0.0313,0.070
10.947058,0.0358,-0.0547,-0.0595,0.088
10.951369,0.0278,0.0494,0.0336,0.066
10.955536,0.0247,0.0245,-0.0260,0.043
10.959968,0.0434,-0.0833,0.0858,0.127
10.964910,0.0622,-0.0477,0.1349,0.156
10.970237,0.0241,0.0209,-0.0468,0.057
10.975822,-0.0350,0.0154,-0.0918,0.099
10.979743,-0.0078,0.0123,0.0558,0.058
10.983827,0.0002,-0.0383,-0.0617,0.073
10.989007,0.0675,0.0658,0.0591,0.111
10.993888,-0.0064,0.0574,-0.1844,0.193
11.000729,0.0272,0.0703,-0.0822,0.112
11.004075,-0.0773,-0.0689,-0.1686,0.198
11.008244,-0.0838,0.0992,-0.1668,0.211
11.014174,-0.0926,0.0831,-0.1677,0.209
11.017937,-0.0015,-0.0232,-0.1428,0.145
11.023518,0.0415,-0.1119,-0.0614,0.134
11.027547,0.0911,0.0612,0.0073,0.110
11.033075,0.0124,-0.0204,-0.0864,0.090
11.037541,-0.8546,-0.3983,0.1079,0.949
11.042404,-0.0190,0.4128,-0.3933,0.570
11.046853,0.6299,0.1257,0.3209,0.718
11.052992,0.3832,-0.1496,0.1696,0.445
11.056674,-0.0491,0.0494,-0.1537,0.169
11.061259,-0.2572,0.0349,-0.1680,0.309
11.066581,-0.3779,-0.0388,-0.2035,0.431
11.071202,0.0385,0.0713,0.1246,0.149
11.076650,0.2035,-0.0543,0.1483,0.258
11.081212,0.1121,-0.0758,-0.0821,0.158
11.086508,-0.3696,-2.3784,-0.7874,2.532
11.091001,0.7705,1.1254,1.1777,1.802
11.095769,-0.8806,2.3222,-0.7970,2.608
11.099975,-0.1564,-1.2328,-0.2100,1.260
11.105070,-0.5622,-0.1400,-0.1830,0.608
11.110085,0.2060,0.6498,-0.0323,0.682
11.115528,0.4743,-0.3475,-0.0485,0.590
11.119324,0.1569,0.1306,-0.4410,0.486
11.124962,-0.1017,0.2746,-0.5236,0.600
11.129568,-0.0943,-0.0526,-0.3533,0.369
11.135586,0.0636,0.0672,0.1914,0.213
11.138993,0.0695,-0.0345,0.0886,0.118
11.143800,0.2578,0.0024,-0.0577,0.264
11.149750,0.2555,0.0363,-0.4115,0.486
11.154077,0.3930,0.1150,-0.3424,0.534
11.158123,0.6643,0.1458,-0.0398,0.681
11.163176,1.0392,0.0057,0.3690,1.103
11.168030,1.0933,-0.1117,0.5951,1.250
11.172444,1.0442,0.0789,0.5985,1.206
11.177498,0.7589,0.1328,0.6189,0.988
11.183407,0.4633,-0.0822,0.6701,0.819
11.187636,0.0811,-0.0749,0.3934,0.409
11.192186,0.0448,-0.0723,0.2397,0.254
11.196986,0.2580,-0.4550,-0.2750,0.591
11.203617,0.3799,-3.2969,-2.1848,3.973
11.207831,0.3156,3.4403,1.8625,3.925
11.213557,-0.9202,0.6713,-0.4744,1.234
11.216693,-0.4397,-1.3646,0.9295,1.709
11.221149,-0.1554,0.1629,0.5588,0.602
11.226600,-0.1277,0.0764,-0.4926,0.515
11.230725,-0.8139,-0.3552,-0.6040,1.074
11.236014,-1.4246,-0.0432,-0.3867,1.477
11.241403,-0.8783,-0.0733,0.1334,0.891
11.245425,-0.2972,-0.0528,0.2028,0.364
11.250453,0.0581,-0.2262,0.3696,0.437
11.254887,-0.1528,-0.0530,0.0100,0.162
11.260769,-0.2421,-0.0739,-0.0982,0.271
11.265103,-0.2121,-0.1163,0.0520,0.247
11.270120,-0.3018,-0.0433,0.1554,0.342
11.275447,0.6375,-1.8727,-1.6013,2.545
11.278663,1.9797,1.9712,3.1083,4.179
11.284819,-0.2589,2.2561,-1.5166,2.731
11.288612,-0.7879,-2.1009,0.7064,2.352
11.293680,-0.9002,0.7766,-0.9376,1.514
11.298807,0.0642,0.0785,0.2056,0.229
11.303676,-0.3309,-0.3560,0.2430,0.543
11.308894,-0.3423,0.3455,-0.6155,0.784
11.313256,-0.1607,-0.0920,0.1398,0.232
11.318355,-0.1307,0.0401,-0.2556,0.290
11.322531,-0.3886,0.0166,0.1228,0.408
11.327790,-0.3034,-0.0096,-0.2117,0.370
11.332640,-0.2671,0.1123,-0.1179,0.313
11.337575,-0.3877,-0.0292,-0.3086,0.496
11.342080,-0.3083,0.1520,-0.3868,0.517
11.346978,-0.2343,0.0603,-0.2762,0.367
11.351564,-0.1944,0.0141,-0.0704,0.207
11.356824,-0.2082,-0.0037,-0.1591,0.262
11.361586,-0.1656,0.0190,-0.2646,0.313
11.366202,-0.1498,0.0296,-0.1715,0.230
11.370953,-0.1992,-0.0245,0.0386,0.204
11.377571,-0.1536,-0.0284,-0.0624,0.168
11.380804,-0.1276,0.0345,-0.1589,0.207
11.386063,-0.1617,0.0015,-0.0475,0.169
11.389850,-0.1367,-0.0436,-0.0345,0.148
11.395697,-0.1000,-0.0121,-0.0481,0.112
11.400703,-0.1354,0.0048,-0.0713,0.153
11.405808,-0.1302,0.0241,0.0416,0.139
11.410372,-0.1829,-0.0525,0.0679,0.202
11.416267,-0.1865,-0.0050,-0.2099,0.281
11.419114,-0.1240,0.0255,-0.2823,0.309
11.425721,-0.1001,-0.0183,-0.1922,0.217
11.429878,-0.0935,-0.0119,-0.2001,0.221
11.433767,-0.2126,0.0304,0.1024,0.238
11.439184,-0.2957,-0.1019,0.0818,0.323
11.443662,-0.2668,-0.0380,0.0850,0.283
11.448415,-0.2555,-0.0654,-0.0005,0.264
11.453094,-0.1564,-0.0521,-0.1136,0.200
11.458148,-0.1941,-0.0846,0.0390,0.215
11.462946,-0.0788,0.1935,-0.6390,0.672
11.467630,-0.0235,-0.0094,-0.1354,0.138
11.472934,-0.0855,-0.0975,-0.0117,0.130
11.477612,-0.1403,0.0438,0.0198,0.148
11.482262,-0.0422,-0.0448,0.0502,0.079
11.486970,0.0362,-0.0141,-0.1956,0.199
11.491889,-0.0235,-0.0406,-0.2282,0.233
11.497057,-0.3158,-0.6313,0.2680,0.755
11.502022,-0.3376,0.7496,0.3574,0.896
11.506559,-0.3913,-0.0152,-0.3423,0.520
11.511274,0.1716,0.2591,0.1115,0.330
11.517351,0.0859,0.1409,-0.1839,0.247
11.520923,0.0332,0.0752,-0.2426,0.256
11.527085,-0.0102,0.1194,-0.2154,0.247
11.530512,0.0398,0.0631,-0.0162,0.076
11.535607,-0.0901,0.0091,0.0563,0.107
11.539735,0.2012,-0.2996,0.2673,0.449
11.544580,-0.5183,-1.4119,0.1469,1.511
11.549360,-0.4119,0.8500,0.7000,1.176
11.554891,0.3018,0.4594,0.5340,0.766
11.558892,-0.0791,0.2239,-0.2721,0.361
11.563586,0.3958,0.1924,0.3316,0.551
11.568395,0.0341,-0.0066,0.1177,0.123
11.575120,-0.1334,0.0608,-0.1074,0.182
11.578274,1.0330,-0.6718,0.2500,1.257
11.583352,-1.3645,-0.8818,-0.9279,1.871
11.587942,0.6624,0.9255,0.8468,1.419
11.592811,-1.4615,0.3988,0.9403,1.783
11.597912,0.0537,-0.1759,-0.6551,0.680
11.603418,0.4824,-0.2431,-0.0435,0.542
11.607308,1.0294,-0.3186,0.9883,1.462
11.612634,-1.0350,0.3330,-0.4702,1.185
11.617406,0.3889,-0.0864,0.6420,0.756
11.621631,-1.0302,-0.6367,-0.5854,1.345
11.626959,-0.4699,0.4537,0.0174,0.653
11.631862,-0.2032,0.6728,0.4956,0.860
11.637131,-0.2670,-0.6410,-0.9448,1.173
11.641432,0.2253,-0.3309,-0.1569,0.430
11.647479,0.3387,0.3241,0.1736,0.500
11.651623,-0.9554,0.3420,-0.9268,1.374
11.656470,-0.5939,0.6059,1.8022,1.992
11.661360,-1.1914,-0.9219,-2.4396,2.867
11.666483,0.9654,-0.5144,0.8455,1.383
11.671386,-0.2565,0.0652,-0.4549,0.526
11.676705,-0.2575,0.9311,1.5767,1.849
11.680187,-0.7342,-0.3043,-1.1687,1.413
11.685490,0.7491,-0.4755,1.4735,1.720
11.690242,-0.0083,-0.0700,-0.4485,0.454
11.694828,0.4185,0.0488,0.5066,0.659
11.699565,0.5198,0.1005,0.1454,0.549
11.704293,0.0124,0.0446,-0.0255,0.053
11.709068,-0.4445,0.0998,1.5435,1.609
11.714677,-0.5994,0.0040,-1.2737,1.408
11.719990,0.8079,-0.2317,0.6715,1.076
11.724338,0.1053,-0.2803,-0.0565,0.305
11.729286,0.0752,0.2721,0.1453,0.317
11.733752,0.2727,-0.1398,0.0685,0.314
11.739728,-0.2329,-0.2666,0.1242,0.375
11.744250,-0.0874,0.0395,0.0296,0.100
11.748744,-0.2556,-0.0626,0.1127,0.286
11.753381,-0.0408,0.7342,0.9271,1.183
11.761416,-0.8047,-0.6178,-0.5831,1.170
11.763349,0.0634,-0.4871,0.1173,0.505
11.775718,0.1335,0.2644,0.2110,0.364
11.781725,0.1876,0.0643,-0.5533,0.588
11.782762,0.3832,-0.0412,-0.0064,0.385
11.783654,0.2764,0.3201,-0.2501,0.491
11.788679,0.5339,0.3130,-0.1542,0.638
11.791184,0.1092,0.0795,-0.1399,0.195
11.796159,-0.3291,0.1340,0.0618,0.361
11.801952,-0.4832,-0.2870,0.0464,0.564
11.805929,-0.6997,-0.3039,-0.6168,0.981
11.810164,-0.8149,-0.1856,-0.9779,1.286
11.815113,-0.3479,-0.3838,-0.4839,0.709
11.820724,-0.7154,-0.0471,-0.4345,0.838
11.825675,-0.5479,-0.3571,-0.1611,0.674
11.829645,-0.7487,-0.4334,-0.3429,0.931
11.835803,-0.7341,-0.1066,-0.1395,0.755
11.839439,-0.4128,-0.2258,-0.0031,0.471
11.844684,-0.0050,-0.2775,0.4123,0.497
11.849751,-0.2082,0.7013,1.2558,1.453
11.855507,-0.5478,-0.5059,-0.8971,1.167
11.859118,0.6510,-0.9906,0.9753,1.535
11.864434,0.2180,-0.1590,0.6560,0.709
11.869580,0.4074,-0.1554,1.0251,1.114
11.873907,0.6672,-0.0700,1.3750,1.530
11.879311,0.7919,-0.0391,1.4295,1.635
11.883885,0.6974,-0.1969,1.0858,1.305
11.888736,0.5479,-0.3329,1.0263,1.210
11.893339,0.4663,-0.3209,1.1527,1.284
11.898045,0.3297,-0.4331,1.3394,1.446
11.904111,1.4484,-0.1833,1.0644,1.807
11.907555,0.1888,-1.1894,1.2228,1.716
11.912777,0.3887,-1.2356,1.6651,2.110
11.917529,-0.1637,-2.1513,1.7193,2.759
11.923286,0.1649,-2.5035,1.4494,2.898
11.926712,-0.0071,-3.0395,1.4739,3.378
11.931931,0.3707,-2.9405,1.5744,3.356
11.937645,-0.0850,-2.7373,1.9653,3.371
11.941346,-0.7171,-1.8366,2.1462,2.914
11.946321,-1.2111,-1.6520,2.7770,3.451
11.951866,-1.2822,-1.3610,3.1381,3.653
11.956585,-1.7912,-1.0332,3.1007,3.727
11.961663,-1.6603,-0.2184,3.5078,3.887
11.965914,-0.4695,0.3720,2.9448,3.005
11.970129,0.4658,-0.9768,2.4598,2.687
11.975517,0.9576,-2.8785,2.7998,4.128
11.980458,1.0061,-4.2024,3.2022,5.378
11.984987,0.8323,-4.8527,2.6697,5.601
11.989431,0.2924,-5.2486,2.0640,5.647
11.995146,-3.4172,-6.6181,2.6237,7.897
11.999671,-3.7754,-7.6637,0.9332,8.594
12.003989,0.6625,-5.8766,2.8631,6.570
12.009559,-0.0488,-3.3964,6.4566,7.296
12.014908,-2.7425,-3.0576,5.7831,7.093
12.018930,-3.4335,-4.2644,4.3126,6.969
12.024886,-3.0313,-5.1952,3.9389,7.190
12.028796,-2.1276,-5.1798,4.4591,7.158
12.034211,-1.4634,-4.7939,4.9173,7.022
12.039396,-1.2526,-4.4189,5.1295,6.885
12.043058,-1.1130,-4.2706,5.2027,6.822
12.047698,-0.8349,-4.1698,5.3426,6.828
12.052841,-0.5525,-3.8531,5.3545,6.620
12.058895,-2.9049,-6.8627,4.8641,8.899
12.062678,-1.1349,-5.3323,5.2933,7.599
12.067172,1.9821,-2.3590,5.7669,6.538
12.072341,1.9243,-0.9263,5.9590,6.330
12.077202,1.2676,-0.9024,5.2614,5.487
12.081807,1.3880,-1.0467,5.2749,5.554
12.086251,0.4433,-2.7364,4.8757,5.609
12.091164,0.7993,-3.0050,4.7925,5.713
12.096724,1.5769,-2.6074,4.5946,5.513
12.100686,1.8201,-2.7932,4.3919,5.514
12.111007,2.2643,-3.1011,4.2039,5.694
12.112187,3.1079,-3.4363,4.1188,6.199
12.117190,3.8771,-3.4568,4.0645,6.596
12.120578,4.0777,-3.5690,3.8196,6.630
12.125923,3.9104,-3.8129,3.5895,6.536
12.129915,3.6357,-3.9027,3.1431,6.191
12.135503,4.1916,-2.8851,2.6882,5.755
12.140443,3.6028,-2.4076,2.5057,5.006
12.144097,1.7789,-3.9222,2.3456,4.904
12.149749,4.0441,-3.1689,2.2588,5.612
12.155675,4.3722,-2.5731,2.3415,5.587
12.159144,3.3556,-3.2113,2.4218,5.238
12.164213,3.0646,-3.6797,2.3421,5.331
12.168606,2.9716,-3.6933,2.2884,5.264
12.173452,3.1780,-3.5284,2.4156,5.328
12.178331,3.3308,-3.3074,2.2326,5.198
12.184788,3.0215,-2.8137,1.8936,4.542
12.188207,3.0291,-2.3477,1.6752,4.183
12.193238,2.7210,-1.9266,1.4102,3.620
12.198298,2.5405,-1.6511,1.3955,3.336
12.202869,0.9228,-3.4178,0.5869,3.588
12.207238,3.6921,-0.7976,1.0739,3.927
12.215131,3.6611,0.6621,0.9730,3.846
12.216847,2.8286,1.2644,0.4999,3.138
12.222263,2.8737,1.7371,0.3900,3.381
12.226545,3.2255,2.4729,0.0019,4.064
12.232433,3.1397,2.7494,-0.2702,4.182
12.236537,3.7168,3.7986,-0.3725,5.328
12.241816,3.2667,3.9654,-0.7029,5.186
12.246818,2.9741,3.9657,-0.8307,5.026
12.251350,2.9285,4.0965,-1.2113,5.179
12.256121,1.6122,2.4631,-1.0566,3.128
12.260753,3.1028,4.4230,-1.0260,5.499
12.266235,2.9689,5.7190,-0.9432,6.512
12.270330,2.4112,6.3896,-1.2940,6.951
12.276740,1.5722,6.8711,-1.4328,7.193
12.279612,0.8238,7.1709,-1.4271,7.358
12.285706,0.7511,7.6743,-1.3053,7.821
12.290272,0.5399,7.8603,-1.3826,7.999
12.294556,0.0719,7.3154,-1.4744,7.463
12.299387,-0.2219,7.2367,-1.6580,7.427
12.307930,-0.4557,7.6644,-1.5033,7.824
12.309549,0.0110,7.7971,-1.2771,7.901
12.313568,-0.1512,7.1302,-1.5173,7.291
12.319315,0.0407,6.7356,-1.8314,6.980
12.323076,0.1688,6.7752,-1.8409,7.023
12.329337,0.1802,6.8083,-2.0315,7.107
12.334055,0.0603,6.8035,-2.0352,7.102
12.338016,0.0938,6.8281,-2.0737,7.137
12.342733,0.1790,6.4903,-2.2138,6.860
12.349646,0.3071,6.0202,-2.1614,6.404
12.352540,0.1985,5.8559,-2.1556,6.243
12.362028,-0.0456,5.7890,-2.1961,6.192
12.363176,-0.3338,5.6762,-2.1776,6.089
12.367533,-0.6725,5.5918,-2.1145,6.016
12.371455,-1.0896,5.6007,-2.0524,6.064
12.376923,-1.4935,5.7439,-2.0245,6.271
12.381535,-1.9142,5.8373,-2.0383,6.473
12.386931,-2.2937,5.8266,-2.0289,6.582
12.391137,-2.6880,5.8701,-2.0827,6.784
12.396441,-3.0936,5.9325,-2.0849,7.008
12.400745,-3.3731,5.9403,-2.0810,7.141
12.406123,-3.6427,5.8078,-2.0500,7.156
12.410287,-3.8086,5.4305,-2.1014,6.958
12.415879,-3.7756,4.9066,-2.2068,6.573
12.419886,-3.6914,4.4410,-2.2328,6.192
12.426417,-3.7290,4.0179,-2.2967,5.943
12.429409,-3.8142,3.3542,-2.3475,5.595
12.435140,-4.1526,2.7375,-2.3485,5.500
12.439418,-3.6915,1.5185,-2.4187,4.667
12.445506,-4.3045,0.6551,-2.1377,4.851
12.449459,-4.5762,0.5427,-2.5333,5.259
12.454463,-3.8657,1.2883,-2.0654,4.568
12.459369,-5.0870,-6.1329,-1.1513,8.051
12.464528,-2.9145,-11.6410,-1.2430,12.064
12.468757,-6.4273,-15.2816,-1.9593,16.694
12.473624,-11.2949,-15.7375,-2.1308,19.488
12.478520,-15.4239,-12.0387,-1.5240,19.625
12.483223,-17.9765,-7.0964,-2.2901,19.462
12.487487,-19.9319,-3.7663,-4.2216,20.719
12.492923,-20.7718,-4.3201,-6.3880,22.157
12.497502,-20.3998,-8.2989,-7.6094,23.301
12.502719,-19.0140,-13.3368,-8.9129,24.877
12.506982,-13.9694,-15.4750,-10.6728,23.421
12.511574,-5.8261,-11.7990,-10.7064,16.964
12.517282,-1.9341,-4.0914,-7.3210,8.607
12.521461,-1.9169,0.1130,-9.3539,9.549
12.526154,0.1543,0.7156,-8.5616,8.593
12.531809,1.6041,-2.2331,-4.3545,5.150
12.537378,2.1083,-5.1152,-1.4423,5.718
12.541867,0.8167,-5.4384,-1.3113,5.654
12.545789,-0.1115,-3.6203,-2.0122,4.143
12.550789,-0.4492,-1.1712,-2.5860,2.874
12.557291,0.4025,0.3419,-2.5113,2.566
12.560300,0.9932,1.9184,-0.9967,2.379
12.565371,1.0131,1.3062,-0.4929,1.725
12.569978,1.0598,0.5376,0.8715,1.474
12.575821,1.3987,0.0864,2.2664,2.665
12.579869,1.6907,-0.0881,2.6281,3.126
12.585460,2.2785,-0.1565,2.6753,3.518
12.589527,2.5386,0.6393,2.9459,3.941
12.594700,1.9903,1.9347,3.3420,4.344
12.599269,1.2794,2.5732,3.4240,4.470
12.603990,1.1836,2.8684,3.4482,4.639
12.608984,0.3081,2.3376,3.4461,4.176
12.613591,-0.7918,1.7230,3.1824,3.704
12.619918,-1.9165,1.2102,2.7399,3.556
12.624315,-3.4940,-1.0436,1.1871,3.835
12.627637,-3.3436,0.6746,2.4414,4.195
12.633579,-3.2794,2.4230,0.6527,4.129
12.637903,-3.4104,2.6701,-2.0880,4.808
12.642273,-4.4166,0.1606,-8.7367,9.791
12.647342,-4.0205,-0.2012,-11.2704,11.968
12.652370,-4.0254,3.1938,-9.9614,11.209
12.657303,-2.4456,0.2969,-12.0428,12.292
12.661877,-3.2642,-5.5639,-5.5897,8.536
12.667010,-0.4567,-2.6368,-0.2298,2.686
12.672022,0.5010,0.7987,0.4042,1.026
12.677189,3.0951,1.6892,2.7562,4.475
12.681162,3.2932,-0.3502,3.7646,5.014
12.686284,3.4911,-2.3380,2.6513,4.968
12.691961,3.6821,-1.0024,1.8959,4.261
12.697052,3.8849,0.8260,1.4381,4.224
12.700576,3.2869,0.3890,1.9275,3.830
12.706077,2.5793,-1.1259,1.4975,3.188
12.712107,0.9676,-4.5828,-0.3842,4.700
12.714970,-0.1238,-0.0316,1.7799,1.784
12.719733,-2.1368,2.7878,0.0915,3.514
12.726441,-4.8697,1.6728,0.0318,5.149
12.729480,-5.2711,-1.3715,-3.6145,6.537
12.734652,-2.8958,1.5927,-1.6035,3.673
12.739273,-1.3160,1.6884,-1.6772,2.719
12.744327,0.6272,-0.5464,0.1034,0.838
12.749082,1.4298,-0.3915,0.6909,1.636
12.754338,1.2915,-0.3039,0.9766,1.647
12.759349,0.5231,-0.5251,0.6071,0.958
12.763800,0.0817,-0.0603,0.1603,0.190
12.768059,0.0923,-0.0719,0.2032,0.234
12.773762,0.1913,-0.0789,0.4724,0.516
12.778116,0.1248,-0.2175,0.4054,0.477
12.783002,0.0840,-0.2412,0.5007,0.562
12.787304,0.1002,-0.1025,0.4094,0.434
12.792951,0.1020,-0.1695,0.4549,0.496
12.797721,0.0628,-0.2723,0.2902,0.403
12.801753,0.0254,-0.0093,0.0609,0.067
12.807536,0.0039,0.0547,0.0163,0.057
12.812565,-0.0734,-0.1109,0.0348,0.137
12.816684,-0.0478,0.0250,0.0496,0.073
12.821160,0.0836,0.0055,0.2852,0.297
12.826362,0.1843,-0.1000,0.3394,0.399
12.831287,0.1104,-0.1981,0.2649,0.349
12.836358,-0.1413,-0.0642,0.1508,0.216
12.840993,-0.2691,-0.0072,0.0280,0.271
12.846658,-0.3016,-0.0482,0.2389,0.388
12.850324,-0.2170,0.0495,0.2781,0.356
12.854764,-0.1067,-0.0873,0.3971,0.420
12.859770,-0.0403,-0.1762,0.2629,0.319
12.864158,0.0494,0.0840,0.2276,0.248
12.869533,0.1031,-0.0123,0.2881,0.306
12.875552,0.2595,-0.0990,0.4924,0.565
12.879066,0.2915,-0.1616,0.5413,0.636
12.884465,0.0720,-0.0880,0.4279,0.443
12.888602,0.0006,-0.0455,0.2048,0.210
12.894579,-0.0878,-0.1061,0.1711,0.220
12.898546,-0.1792,-0.0519,0.0611,0.196
12.903662,-0.0292,0.0596,-0.0038,0.066
12.908227,-0.1260,-0.0397,0.1939,0.235
12.913861,-0.0514,-0.1102,0.2076,0.241
12.918332,0.0924,0.1157,0.2351,0.278
12.922696,-0.0777,-0.0580,0.3244,0.339
12.927798,0.0293,-0.0859,0.1381,0.165
12.932998,-0.1389,0.0585,0.0545,0.160
12.937584,-0.3195,0.1355,-0.2590,0.433
12.942122,-0.3812,0.0353,-0.4751,0.610
12.947450,-0.4537,-0.0102,-0.2968,0.542
12.952013,-0.2856,0.0351,-0.2944,0.412
12.971353,-0.2184,0.1184,-0.4951,0.554
12.972014,-0.2785,0.1607,-0.6198,0.698
12.972582,0.0079,0.2006,-0.3304,0.387
12.973118,0.0212,0.0849,0.2002,0.218
12.976290,0.0008,-0.0833,0.3545,0.364
12.980709,0.0376,-0.0984,0.2766,0.296
12.986408,-0.0835,-0.0178,0.1940,0.212
12.990278,-0.0754,0.0340,-0.0009,0.083
12.996133,0.0240,0.0283,0.0367,0.052
13.000645,0.0831,0.0611,0.2083,0.232
13.005544,0.1830,0.0985,0.3343,0.394
13.009619,0.2181,-0.0195,0.4817,0.529
13.015657,0.3753,-0.1903,0.4966,0.651
13.019997,0.8829,-1.1735,1.4351,2.053
13.026156,-0.1152,0.2454,0.0266,0.272
13.029771,0.9056,0.8893,0.8449,1.525
13.034891,0.5930,0.1878,0.3114,0.696
13.038894,0.4167,0.0382,0.1214,0.436
13.044165,0.2629,0.2882,-0.1804,0.430
13.048816,0.2425,0.1911,0.0014,0.309
13.054564,0.0588,-0.0041,0.1813,0.191
13.058249,0.0472,-0.0939,0.2631,0.283
13.063655,-0.0089,-0.0668,0.2989,0.306
13.069027,0.6861,-0.4276,0.0968,0.814
13.073127,-0.9111,-1.4450,0.3965,1.754
13.077515,-0.8356,0.7606,-0.5285,1.247
13.083393,0.0583,1.5260,-0.2932,1.555
13.087382,-0.0179,0.5770,-0.8697,1.044
13.092282,0.7035,-0.0478,0.0129,0.705
13.096808,0.1151,-0.4496,0.3407,0.576
13.102480,-0.3326,-0.1625,0.3173,0.488
13.107524,-0.4550,0.0118,-0.0022,0.455
13.111191,-0.2661,-0.0556,-0.1109,0.294
13.117313,0.0264,-0.0079,0.1633,0.166
13.121648,0.2430,-0.0462,0.4012,0.471
13.126162,0.2834,-0.0459,0.5048,0.581
13.130696,0.1403,-0.0932,0.2642,0.313
13.136197,0.1920,0.0080,-0.1798,0.263
13.140999,0.3478,0.0519,-0.1337,0.376
13.145127,0.4664,0.1081,-0.0570,0.482
13.150000,0.2913,-0.0318,-0.0857,0.305
13.156591,0.0972,-0.0257,-0.1240,0.160
13.160278,0.0109,0.0713,-0.0545,0.090
13.164926,-0.0778,0.0174,0.0008,0.080
13.169484,0.0464,-0.1057,0.0396,0.122
13.176271,0.1129,-0.0183,0.1812,0.214
13.179747,0.2373,0.0214,0.4756,0.532
13.183706,0.1951,-0.1230,0.3938,0.456
13.188831,-0.0098,-0.1763,0.2023,0.269
13.194142,-0.1720,-0.0433,0.0323,0.180
13.198500,-0.1289,0.0680,0.0635,0.159
13.204494,0.1160,0.0478,0.0726,0.145
13.208796,-0.0814,-0.0273,0.0908,0.125
13.214585,-0.0990,0.0197,0.0441,0.110
13.218068,-0.1588,0.0068,-0.1122,0.195
13.223204,-0.0903,0.0151,-0.1822,0.204
13.227656,0.0228,0.0424,-0.1337,0.142
13.232714,0.1233,0.0150,-0.0622,0.139
13.237454,0.0452,0.0044,-0.0627,0.077
13.243082,-0.1320,0.0129,-0.1749,0.220
13.247349,-0.2086,0.0093,-0.1367,0.250
13.251786,-0.1760,-0.0894,-0.0181,0.198
13.257222,-0.0017,-0.0591,-0.0172,0.062
13.261814,0.1881,-0.0600,0.0927,0.218
13.266110,0.2795,-0.0369,0.1252,0.308
13.271312,0.2852,-0.0092,0.1951,0.346
13.277083,0.2507,-0.0529,0.3019,0.396
13.281402,0.1739,-0.1342,0.3127,0.382
13.285864,0.1143,-0.0605,0.1047,0.166
13.290453,0.1050,0.0814,-0.0801,0.155
13.296248,0.0127,0.0322,-0.0996,0.105
13.300296,-0.0620,-0.0711,-0.0619,0.113
13.305128,-0.5006,-0.1098,-0.3232,0.606
13.309886,-0.3431,0.0178,-0.4251,0.547
13.315621,-0.1417,0.1728,-0.1908,0.294
13.319371,-0.4187,-0.0508,-0.1266,0.440
13.325610,-0.3458,-0.0777,-0.0564,0.359
13.329568,-0.3669,-0.0855,-0.4260,0.569
13.333960,0.3580,0.4172,0.4694,0.723
13.338604,-0.2384,0.0326,0.1738,0.297
13.343875,-0.2456,-0.5939,0.6004,0.879
13.348956,0.6021,-0.7075,1.1491,1.478
13.353574,1.3356,-0.3857,1.5555,2.086
13.357797,1.9202,0.1859,1.5247,2.459
13.362842,1.5371,0.2181,0.7689,1.733
13.367324,1.4068,-0.5153,0.2828,1.525
13.372511,0.6287,-1.3320,0.4514,1.541
13.377372,1.4195,-0.6419,0.6970,1.707
13.382565,0.6579,0.5956,0.6988,1.130
13.387211,0.3550,0.3077,1.0099,1.114
13.392232,1.3676,-0.7921,1.2075,1.989
13.397267,2.5820,-1.9670,2.8262,4.304
13.401694,2.9654,-3.4423,3.3798,5.663
13.406798,4.5317,-3.2808,3.2474,6.469
13.411320,3.5829,-3.9591,4.8932,7.243
13.416773,3.3875,-4.2545,3.9563,6.725
13.421725,4.2339,-3.5497,3.0235,6.298
13.426624,3.1373,-4.6132,2.3748,6.063
13.430415,2.7725,-4.6910,-0.7293,5.498
13.436266,6.3949,-6.4489,3.4931,9.731
13.440794,6.1464,-7.1015,2.7730,9.793
13.447774,4.0680,-6.1849,2.5623,7.834
13.450236,4.0484,-4.2229,3.0506,6.598
13.456048,4.4028,-3.2472,2.5586,6.039
13.459824,3.9271,-3.1395,2.9889,5.849
13.464391,3.5592,-2.5769,2.2316,4.928
13.469287,3.2169,-1.6365,1.9771,4.115
13.475942,2.6776,-0.8976,2.0270,3.476
13.479102,2.3862,0.2426,3.0029,3.843
13.484341,3.2190,0.3971,1.2298,3.469
13.488768,2.0312,0.5622,1.3977,2.529
13.494412,0.6128,1.3834,2.2031,2.673
13.498077,0.1485,2.7166,3.9557,4.801
13.503156,0.1187,3.7120,4.4157,5.770
13.508650,0.6767,3.2680,4.9373,5.959
13.512900,1.1336,2.0488,6.2003,6.628
13.517435,0.7871,0.5218,5.4436,5.525
13.523531,-0.1205,-2.3190,2.7327,3.586
13.529025,0.5742,-5.4578,3.6692,6.602
13.532718,5.1857,-7.1958,6.4069,10.942
13.537171,7.4551,-8.2617,5.9433,12.616
13.541569,5.9010,-7.9608,4.2370,10.777
13.547500,5.8005,-4.4609,3.4570,8.093
13.552408,6.2757,0.2473,3.3026,7.096
13.556478,6.0981,3.2739,3.0218,7.552
13.560875,5.9805,5.1282,2.9934,8.428
13.566789,6.6190,6.7369,2.7224,9.829
13.571261,6.3847,7.9300,1.4209,10.280
13.576801,4.9903,8.1989,0.2314,9.601
13.580520,4.6153,7.6936,-0.2951,8.977
13.585776,5.4654,7.3882,-0.3512,9.197
13.590067,6.5071,7.2032,-0.6170,9.727
13.595085,7.0192,6.4352,-1.1151,9.588
13.599766,7.4510,5.4769,-1.5447,9.376
13.604777,7.9034,4.7471,-1.9014,9.414
13.609906,8.0578,4.6638,-2.3745,9.608
13.614817,7.8565,5.0136,-2.9034,9.762
13.619521,7.4091,5.2148,-3.4313,9.688
13.625490,7.0208,5.1601,-3.8077,9.509
13.629385,6.8031,4.9646,-3.9898,9.319
13.634149,6.7504,4.6930,-4.0919,9.183
13.639787,6.7454,4.2711,-4.1708,9.008
13.644454,6.7237,3.6967,-4.2043,8.749
13.647987,6.7315,3.0941,-4.1322,8.483
13.653147,6.7408,2.5948,-4.0027,8.258
13.657570,6.7024,2.2440,-3.8495,8.048
13.662567,6.5711,2.0679,-3.7473,7.842
13.668083,6.2989,2.0782,-3.6429,7.567
13.672381,6.0393,1.9971,-3.6204,7.319
13.677325,5.7303,2.2121,-3.5243,7.082
13.682278,5.5259,2.3713,-3.4696,6.942
13.686930,5.3209,2.4675,-3.3820,6.770
13.691536,5.1436,2.4672,-3.3501,6.616
13.697431,5.0471,2.4949,-3.3310,6.542
13.701365,4.9457,2.4595,-3.3295,6.449
13.706594,4.8805,2.3946,-3.3170,6.368
13.713020,4.8039,2.3001,-3.3487,6.291
13.715767,4.6996,2.1666,-3.3814,6.182
13.720751,4.5630,2.0155,-3.3935,6.033
13.726841,4.3754,1.8995,-3.5120,5.923
13.730313,4.1698,1.8925,-3.7201,5.900
13.735014,4.0657,1.8701,-3.8885,5.928
13.740123,4.0056,1.7484,-4.0238,5.941
13.745637,4.0041,1.5181,-4.1235,5.945
13.749691,3.9797,1.2891,-4.1107,5.865
13.755087,3.9903,1.0306,-4.0905,5.807
13.759762,3.8951,0.8500,-4.0081,5.653
13.764172,3.8236,0.6637,-3.8945,5.498
13.769188,3.6442,0.4763,-3.7308,5.237
13.774674,3.4382,0.4027,-3.5552,4.962
13.778810,3.1863,0.3064,-3.3249,4.615
13.783840,2.9649,0.1227,-3.1069,4.296
13.788029,2.7438,-0.0262,-2.9319,4.016
13.793584,2.4929,-0.2045,-2.8025,3.756
13.799147,2.6317,-0.3099,-2.5734,3.694
13.803663,2.3557,-0.6318,-2.4669,3.469
13.807741,2.0639,-0.8666,-2.4295,3.304
13.812705,1.8660,-0.9333,-2.3413,3.136
13.818105,1.6475,-1.1118,-2.2307,2.988
13.822367,1.4739,-1.3490,-2.1147,2.909
13.826948,1.2769,-1.5826,-1.9981,2.851
13.832291,1.0675,-1.7569,-1.8217,2.747
13.836808,0.8442,-1.9243,-1.6409,2.666
13.841566,0.5957,-2.0534,-1.4725,2.596
13.846824,0.2986,-2.1368,-1.3858,2.564
13.850931,-0.0154,-2.2005,-1.2945,2.553
13.857068,-0.3505,-2.2322,-1.1798,2.549
13.860887,-0.5155,-2.3635,-1.1112,2.662
13.865871,-0.7783,-2.6417,-1.0292,2.940
13.871197,-0.9954,-2.7031,-1.0028,3.050
13.876334,-1.1716,-2.7370,-0.9629,3.129
13.880008,-1.3506,-2.8151,-0.8883,3.246
13.886114,-1.5237,-3.0023,-0.7887,3.458
13.890047,-1.6822,-3.0717,-0.7073,3.573
13.895722,-1.9107,-3.0716,-0.7065,3.686
13.899849,-2.2394,-3.1752,-0.6788,3.944
13.904761,-2.5972,-3.1674,-0.7412,4.163
13.909313,-3.0933,-3.1113,-0.7634,4.453
13.915843,-3.4844,-2.8901,-0.9905,4.634
13.919154,-3.9647,-2.8055,-0.9925,4.957
13.924552,-4.2107,-2.7180,-1.1055,5.132
13.928886,-4.4266,-2.8780,-1.2163,5.418
13.933421,-4.6321,-3.0401,-1.2352,5.677
13.938477,-4.6245,-3.1583,-1.0992,5.707
13.943318,-4.6197,-3.2888,-0.9941,5.757
13.947742,-4.7120,-3.4739,-1.0096,5.941
13.952707,-4.8888,-3.6007,-1.0850,6.168
13.957934,-4.8672,-3.5589,-1.2946,6.167
13.962263,-5.2480,-3.5923,-1.4410,6.521
13.966940,-5.4470,-3.4114,-1.6606,6.638
13.973065,-5.7263,-3.1079,-1.9802,6.810
13.976978,-5.6622,-2.6173,-2.1089,6.585
13.981448,-6.0991,-2.3058,-2.4486,6.965
13.986881,-6.3601,-1.9315,-2.5989,7.137
13.992156,-6.5112,-2.2075,-2.7000,7.386
13.996496,-6.5907,-2.5880,-2.8163,7.620
14.000917,-7.0227,-2.9224,-2.7435,8.086
14.006226,-7.1520,-2.9886,-2.7878,8.237
14.011016,-7.4414,-3.0815,-2.8097,8.530
14.016309,-7.6711,-3.1079,-2.7870,8.733
14.020476,-7.9614,-3.2045,-2.5202,8.945
14.026694,-8.2123,-2.9958,-2.4656,9.083
14.030341,-8.4570,-2.9125,-2.4381,9.271
14.036922,-8.5938,-2.9083,-2.4532,9.398
14.039422,-9.0243,-2.8471,-2.6050,9.815
14.045699,-9.0878,-2.5521,-2.7234,9.824
14.049695,-9.2863,-2.5955,-2.4927,9.959
14.056297,-9.5795,-2.2520,-2.4072,10.131
14.060252,-9.3261,-1.8851,-2.4908,9.835
14.063591,-9.9508,-1.7631,-2.4744,10.404
14.069005,-9.7134,-1.4878,-2.5593,10.155
14.074907,-9.4433,-1.6972,-2.5495,9.928
14.078265,-8.8276,-1.8902,-2.4778,9.362
14.083415,-8.2822,-2.1670,-2.2904,8.862
14.088402,-7.7185,-2.4916,-2.1894,8.401
14.092662,-7.4408,-2.9622,-2.5431,8.403
14.098366,-7.3108,-2.7922,-2.9016,8.346
14.102467,-7.5265,-2.5447,-2.9322,8.469
14.108059,-7.2775,-3.7056,-2.9417,8.680
14.112012,-4.4210,-3.3164,-1.5495,5.740
14.117443,-4.3016,-0.9046,-0.7304,4.456
14.122131,-3.2428,1.5798,-0.2631,3.617
14.126991,-1.3449,2.4337,0.2177,2.789
14.131888,0.9760,2.0062,1.3366,2.601
14.136741,3.8516,1.6882,2.1736,4.734
14.141897,4.5190,0.7068,3.7337,5.904
14.146562,14.8860,-7.5171,7.7725,18.399
14.150537,23.8327,-11.7997,10.6761,28.657
14.156502,22.4689,-10.7331,4.5722,25.317
14.160911,14.5802,-1.2399,-2.0169,14.771
14.165093,14.0997,8.2431,-1.6989,16.421
14.170116,12.5682,12.8293,-2.5034,18.133
14.176975,2.0997,4.3197,1.3167,4.980
14.180310,-4.7419,-6.5147,3.0791,8.626
14.185755,-10.9773,-13.1391,2.1358,17.254
14.189345,-18.2642,-13.4912,-0.9061,22.725
14.194035,-16.5163,-5.9362,-4.3544,18.083
14.198891,-8.3856,-2.2642,-3.8955,9.519
14.204237,0.8542,-3.6894,-0.3653,3.805
14.208208,3.9593,-1.4971,-0.0736,4.234
14.213319,2.3680,1.4096,-0.8459,2.883
14.218740,1.2962,0.0808,-0.6166,1.438
14.223126,-0.9667,-1.5139,-1.3595,2.253
14.227657,-2.4963,-0.2863,-2.8091,3.769
14.232918,-2.4703,0.9814,-2.7519,3.826
14.237500,-1.2318,0.8680,-1.1877,1.919
14.242346,0.0379,0.0646,0.5895,0.594
14.248381,0.6067,-0.1512,1.3597,1.497
14.252385,0.4245,-0.0175,0.9911,1.078
14.257300,-0.0165,-0.1044,0.4790,0.491
14.262110,-0.1645,0.0380,0.1438,0.222
14.267602,0.2195,0.1812,-1.7035,1.727
14.271527,-0.1351,0.3501,1.1558,1.215
14.277329,-0.2187,0.7335,0.0958,0.771
14.282351,0.3533,-0.0021,0.4687,0.587
14.286779,0.6372,-0.1215,0.7013,0.955
14.290993,0.5680,0.3124,0.8496,1.069
14.296418,0.3166,0.3848,0.8683,1.001
14.301323,0.5139,0.3899,0.6401,0.909
14.306154,0.2991,0.4093,0.7625,0.916
14.310315,0.3902,0.2924,0.7447,0.890
14.316081,0.2583,0.0153,0.6964,0.743
14.320664,-0.4723,-0.0036,0.1242,0.488
14.325382,-0.8618,-0.3484,-0.0147,0.930
14.329839,-0.9639,-0.4427,-0.2349,1.086
14.336419,-0.6875,-0.2890,-0.2622,0.791
14.339844,-0.2569,0.0026,-0.6572,0.706
14.344519,0.0939,0.0326,-0.7436,0.750
14.349449,0.2477,0.1625,-0.7914,0.845
14.354814,0.0162,0.2367,-1.1768,1.201
14.358723,-0.2944,-0.0173,-0.9421,0.987
14.363549,-0.4574,-0.1784,-0.6942,0.850
14.368202,-0.4299,-0.0048,-0.2695,0.507
14.374163,-0.1083,-0.2595,-0.2234,0.359
14.379004,0.2049,-0.1021,0.1339,0.265
14.383450,0.3691,-0.2739,0.3359,0.569
14.387649,0.3196,-0.1720,0.5800,0.684
14.393122,0.2067,0.2485,0.4910,0.588
14.398060,0.3108,0.4973,0.4900,0.764
14.402475,0.4669,0.6511,0.5316,0.962
14.407757,0.6936,0.3084,0.8169,1.115
14.411770,0.7603,0.1484,0.9176,1.201
14.417399,0.4780,0.3402,0.5214,0.785
14.422511,0.0167,0.1827,0.0278,0.186
14.426426,-0.3602,-0.0844,-0.2278,0.434
14.431190,-0.1960,-0.3867,0.1063,0.446
14.436564,0.0229,-0.5356,0.4814,0.720
14.440662,0.2512,-0.7845,0.5454,0.988
14.446587,0.3989,-0.5954,0.2718,0.766
14.450664,0.4159,-0.4134,0.1409,0.603
14.457493,0.0628,-0.2698,-0.1320,0.307
14.461067,-0.0474,-0.1288,-0.3701,0.395
14.465450,-0.1884,0.0765,-0.5137,0.552
14.470320,-0.0082,0.1308,-0.6321,0.645
14.478102,-0.0314,0.2088,-0.5960,0.632
14.479980,0.0587,0.1865,-0.5321,0.567
14.485675,0.0110,0.2194,-0.4239,0.477
14.489364,0.0004,0.1999,-0.4745,0.515
14.495039,-0.1552,0.3026,-0.4514,0.565
14.498973,-0.1517,0.3194,-0.5623,0.664
14.503556,-0.3084,0.2907,-0.6689,0.792
14.508694,-0.1134,0.1686,-0.6251,0.657
14.514408,-0.2004,0.0015,-0.3848,0.434
14.518346,-0.1421,0.2197,-0.0710,0.271
14.523589,0.8773,-0.3012,-0.8222,1.239
14.529288,0.1331,0.5694,0.9321,1.100
14.532925,0.0971,0.7016,0.4663,0.848
14.538407,0.3361,-0.2542,0.8915,0.986
14.543200,0.4569,-0.0006,0.9199,1.027
14.547476,0.6950,0.0579,0.9744,1.198
14.552560,1.4963,-1.5268,-0.2474,2.152
14.557479,-0.0927,1.5885,0.9168,1.836
14.561626,-0.1990,0.3782,-0.0182,0.428
14.567649,-0.1338,-0.0981,0.0176,0.167
14.571737,0.1463,-1.6378,-0.6077,1.753
14.576713,-0.6877,1.7775,-0.1456,1.911
14.581168,-0.5339,-0.4439,-0.3811,0.792
14.586077,-0.7035,-0.4256,-0.3420,0.891
14.591273,-0.6665,0.0318,-0.6865,0.957
14.596669,-0.3892,-0.1623,-0.6232,0.752
14.600717,-0.1226,-0.0218,-0.6244,0.637
14.606049,-0.0859,0.1780,-1.0313,1.050
14.611021,0.0888,-0.1990,-0.4845,0.531
14.615011,0.1055,-0.2286,-0.3191,0.406
14.619675,1.2778,-2.8088,-2.6559,4.071
14.626036,-0.0121,2.7478,0.5896,2.810
14.629401,-0.0891,0.4675,-0.6273,0.787
14.635008,0.0404,-0.0795,0.4040,0.414
14.639233,-0.2882,1.1513,0.1391,1.195
14.643831,-0.3497,-0.0864,0.1477,0.389
14.649577,-0.8097,-0.6071,0.5961,1.175
14.654003,-0.9643,-0.4338,0.7324,1.286
14.658766,-0.1374,0.3205,0.5675,0.666
14.663575,0.2028,0.8417,0.3308,0.927
14.669320,0.2575,0.4246,0.3495,0.607
14.673572,0.0799,-0.4465,-0.3143,0.552
14.678945,-0.4164,-1.0680,-0.4716,1.240
14.684300,-0.0968,-2.1072,-2.2305,3.070
14.687631,-0.9486,1.0404,1.8692,2.340
14.692697,-1.7003,0.9495,-1.4531,2.430
14.697434,0.0302,-0.8363,-0.4662,0.958
14.702350,0.3946,0.2807,-1.0910,1.194
14.707077,0.1018,-0.3541,-0.7862,0.868
14.712653,-0.6401,-0.9234,-0.1085,1.129
14.716847,-1.1950,-0.7437,-0.2393,1.428
14.721691,-1.2755,-0.5882,-0.6958,1.568
14.727512,-1.0662,-0.2992,-1.0741,1.543
14.731564,-0.7827,-0.1373,-0.7470,1.091
14.736390,-0.4553,-0.2700,-0.4456,0.692
14.741092,-0.0978,-0.7951,-0.0853,0.806
14.746362,0.2093,-1.0323,0.3093,1.098
14.750929,0.8319,-0.9668,0.8550,1.536
14.767619,1.1054,-0.7402,0.6900,1.499
14.768518,1.0576,-0.2359,0.2148,1.105
14.769074,0.6235,0.0485,-0.0001,0.625
14.770483,0.1831,-0.1428,-0.0696,0.242
14.776558,0.1231,-0.6183,0.4719,0.787
14.779285,0.1688,-0.8081,0.8539,1.188
14.784935,0.3881,-0.4974,1.1046,1.272
14.789425,0.7297,-0.2113,1.1243,1.357
14.794769,0.6138,-1.4262,0.4836,1.626
14.799010,1.7042,-1.6161,0.8661,2.503
14.804426,1.9626,0.6688,0.7969,2.221
14.808433,-0.0348,1.2927,0.6989,1.470
14.813203,-0.2501,1.1328,0.7542,1.384
14.819057,-0.1721,1.1232,0.5516,1.263
14.823292,-1.2633,0.5011,-0.1831,1.371
14.828509,-1.5119,0.5222,-0.3214,1.631
14.833926,-1.0780,0.8082,-0.4423,1.418
14.837335,-1.2510,0.8140,-0.2558,1.514
14.842665,-1.1789,0.8650,-0.2360,1.481
14.847179,-1.0531,0.7556,-0.0601,1.298
14.852112,-1.0214,0.6964,0.0871,1.239
14.857068,-0.8352,0.6944,0.0549,1.088
14.862038,-0.6786,0.7162,-0.0534,0.988
14.866406,-0.4935,0.6256,-0.0135,0.797
14.872394,-0.2600,0.4876,0.1513,0.573
14.877544,-0.6651,-0.0614,0.3364,0.748
14.881018,-1.8334,-2.3164,0.1258,2.957
14.885717,2.2852,1.4157,1.1797,2.936
14.891249,-0.5949,1.5734,0.6638,1.808
14.896049,-0.1790,1.1738,0.3162,1.229
14.900520,0.1537,0.1201,0.2954,0.354
14.905878,0.2188,-0.4083,0.1578,0.489
14.909766,0.2782,-0.0797,0.2162,0.361
14.915881,0.0667,-0.2783,0.1136,0.308
14.920218,0.5637,-0.6003,1.0947,1.370
14.925014,1.2868,1.3882,0.9046,2.098
14.930184,-0.4605,0.9756,-0.2981,1.119
14.935535,0.1155,0.2382,-0.5045,0.570
14.940149,0.1461,-0.3596,-0.3908,0.551
14.943779,0.0912,-0.0839,-0.3830,0.403
14.949178,-0.0427,0.2177,-0.5976,0.637
14.953191,-0.2631,0.2126,-0.6882,0.767
14.959272,-0.5688,-0.0037,-0.7077,0.908
14.963435,-0.6104,-0.1101,-0.7965,1.010
14.968053,-0.7734,-0.0494,-0.9345,1.214
14.972925,-0.6024,-0.0271,-1.0717,1.230
14.979357,-0.3413,-0.1270,-0.8721,0.945
14.982830,-0.0590,-0.2173,-0.4458,0.499
14.987242,0.0466,-0.3097,-0.3380,0.461
14.992945,0.1863,-0.4306,-0.2330,0.524
14.997329,0.2162,-0.4581,-0.1815,0.538
15.001967,0.1047,-0.4091,-0.1421,0.446
15.007135,0.0631,-0.3196,-0.3396,0.471
15.011225,0.1224,-0.2254,-0.3416,0.427
15.017397,0.3568,-0.2914,-0.2626,0.530
15.022296,0.1152,-0.2592,-0.4082,0.497
15.026780,0.0940,-0.1052,-0.4799,0.500
15.030684,0.1519,0.0844,-0.4013,0.437
15.043478,0.0783,0.1376,-0.5737,0.595
15.045704,-0.0169,0.0902,-0.5524,0.560
15.046339,-0.1030,0.0499,-0.4759,0.489
15.050477,-0.2208,0.0238,-0.4686,0.519
15.056031,-0.2415,0.0359,-0.3390,0.418
15.060317,-0.3270,0.0647,-0.1420,0.362
15.070751,-0.2259,0.1463,-0.0140,0.269
15.071334,-0.0673,0.1538,0.1957,0.258
15.080459,0.1010,0.0348,0.5109,0.522
15.081235,0.1255,-0.0433,0.5367,0.553
15.083665,0.1620,-0.0544,0.7154,0.736
15.091686,0.0839,0.0973,0.4190,0.438
15.093864,-0.2694,0.0577,-0.0342,0.278
15.100575,-0.4800,-0.1137,-0.1353,0.512
15.103910,-0.6774,0.0184,-0.3509,0.763
15.108346,-0.6225,0.1549,-0.2885,0.703
15.113761,-0.4845,0.1022,-0.0969,0.505
15.119307,-0.3325,0.0710,0.0875,0.351
15.123813,-0.1831,0.1164,0.1521,0.265
15.127346,-0.1390,0.1451,0.1142,0.231
15.132075,-0.0636,0.1118,0.1220,0.177
15.137256,-0.0093,-0.0122,0.3523,0.353
15.141551,0.0288,-0.1168,0.5584,0.571
15.146584,0.0459,-0.0585,0.5037,0.509
15.151781,0.0445,0.1291,0.2292,0.267
15.156118,0.0270,0.2330,-0.1044,0.257
15.160825,0.0029,0.1385,-0.2125,0.254
15.166067,-0.0522,-0.0610,-0.1913,0.207
15.170585,-0.0642,-0.1742,-0.0599,0.195
15.175951,-0.0160,-0.2035,-0.0054,0.204
15.180538,0.0900,-0.1297,0.0134,0.158
15.185121,0.0985,-0.0559,-0.1043,0.154
15.189988,0.0163,-0.0420,-0.2627,0.266
15.195074,-0.0564,-0.1334,-0.3395,0.369
15.200095,-0.0586,-0.1817,-0.2337,0.302
15.204896,1.1150,-0.6497,-2.1632,2.519
15.210395,-0.2146,-1.0506,2.3771,2.608
15.214789,-0.6329,2.6395,0.7512,2.816
15.219448,-0.3579,-0.1887,-0.3164,0.514
15.225128,0.0037,-0.8491,0.0912,0.854
15.229477,-0.0657,0.2774,-0.0424,0.288
15.234772,-0.2559,0.2281,-0.3314,0.477
15.239294,-0.4281,-0.0487,-0.6586,0.787
15.243380,-0.3994,0.1625,-0.5480,0.697
15.248816,-0.2533,0.0148,-0.2848,0.381
15.253326,-0.0928,-0.2858,0.0758,0.310
15.257940,0.0148,-0.1436,0.3479,0.377
15.263033,-0.0522,-0.0877,0.2584,0.278
15.268030,-0.0205,0.1835,0.4656,0.501
15.273545,-0.0696,0.0313,0.2012,0.215
15.277360,-0.1522,-0.1041,0.2075,0.278
15.282440,-0.1894,0.0213,0.1945,0.272
15.288205,-0.1718,0.0484,0.1359,0.224
